pc_time,esp_time_ms,ax,ay,az,gx,gy,gz,acc_mag,gyro_mag,label
2026-05-24T22:06:09.398,4043,0.0,0.0,0.0,0.0,0.0,0.0,0.0,0.0,walk
2026-05-24T22:06:09.398,4063,0.0,0.0,0.0,0.0,0.0,0.0,0.0,0.0,walk
2026-05-24T22:06:09.398,4083,-0.104,-0.96606,0.23169,0.0,0.0,0.0,0.9988834665265014,0.0,walk
2026-05-24T22:06:09.398,4103,-0.09326,-1.0127,0.15405,-0.12207,1.64795,-1.95312,1.028586467002167,2.558381914765659,walk
2026-05-24T22:06:09.398,4123,-0.10889,-0.9939,0.2229,-0.30518,-1.15967,-1.70898,1.0243918449987777,2.087721720368881,walk
2026-05-24T22:06:09.398,4143,-0.07837,-0.96558,0.24146,-1.58691,4.27246,-1.83105,0.9983934719838667,4.911714761893243,walk
2026-05-24T22:06:09.398,4163,-0.021,-0.98535,0.16382,-2.01416,4.21143,-0.85449,0.9990958987504653,4.745854644908544,walk
2026-05-24T22:06:09.398,4183,0.00146,-1.01147,0.14185,-1.83105,1.15967,0.91553,1.0213692353894357,2.3528225161069845,walk
2026-05-24T22:06:09.398,4203,-0.06348,-1.00537,0.13623,-0.79346,-7.75146,2.74658,1.0165417651036284,8.261864958930277,walk
2026-05-24T22:06:09.398,4223,-0.12109,-0.99609,0.13354,-0.61035,-11.90186,3.60107,1.0122702246929918,12.449678860396359,walk
2026-05-24T22:06:09.398,4243,-0.13379,-0.96875,0.18091,-0.48828,-12.87842,3.78418,0.9945374576656226,13.431758534428766,walk
2026-05-24T22:06:09.398,4263,-0.11548,-1.00024,0.17627,-0.73242,-6.16455,3.17383,1.0221970460239065,6.972181339279695,walk
2026-05-24T22:06:09.398,4283,-0.13208,-1.01123,0.18799,-0.79346,-4.39453,2.01416,1.0370011954670062,4.898807324043271,walk
2026-05-24T22:06:09.398,4303,-0.12207,-0.97876,0.24219,-1.40381,-1.46484,1.28174,1.0156417767106667,2.3998533641245667,walk
2026-05-24T22:06:09.398,4323,-0.13745,-0.98511,0.18921,-2.13623,-0.24414,0.91553,1.0124893276968405,2.336937768405483,walk
2026-05-24T22:06:09.398,4343,-0.10229,-0.98071,0.1499,-2.2583,-0.97656,1.40381,0.9973591921669945,2.8327143943045163,walk
2026-05-24T22:06:09.398,4363,-0.13086,-1.00415,0.13843,-1.77002,-8.17871,2.50244,1.0220589156208169,8.734212844790308,walk
2026-05-24T22:06:09.398,4383,-0.10889,-0.98315,0.20776,-1.95312,-10.25391,2.68555,1.0107448600908144,10.778196826232113,walk
2026-05-24T22:06:09.398,4403,-0.10107,-0.97803,0.23389,-2.86865,-4.45557,2.01416,1.0106742095749748,5.66904730558848,walk
2026-05-24T22:06:09.398,4423,-0.09814,-0.9856,0.19849,-3.78418,3.05176,1.28174,1.0101668672551085,5.027535658511036,walk
2026-05-24T22:06:09.848,7252,-0.14233,-0.98657,0.16016,0.06104,-1.95312,0.67139,1.0095689275131243,2.0661965414984125,walk
2026-05-24T22:06:09.848,7272,-0.15796,-0.98437,0.15332,-0.12207,-0.61035,0.67139,1.0086836376684218,0.9155286666729775,walk
2026-05-24T22:06:09.848,7292,-0.16235,-0.98608,0.1665,-0.24414,2.44141,0.18311,1.013130563599776,2.460409803223845,walk
2026-05-24T22:06:09.848,7312,-0.15991,-0.99048,0.13501,-0.24414,3.41797,-0.24414,1.0123485262497298,3.4353642601767866,walk
2026-05-24T22:06:09.848,7332,-0.15918,-0.99292,0.13281,-0.06104,0.85449,-0.18311,1.014330762079116,0.8760184437556094,walk
2026-05-24T22:06:09.848,7352,-0.1665,-0.99048,0.13794,0.12207,-0.73242,-0.12207,1.0138048747170236,0.7524900173424228,walk
2026-05-24T22:06:09.848,7372,-0.15649,-0.98633,0.1582,0.12207,-0.30518,-0.30518,1.0111197896391901,0.448520623494617,walk
2026-05-24T22:06:09.848,7392,-0.15063,-0.98853,0.15381,-0.24414,0.48828,-0.42725,1.0117007827910385,0.6932274233611939,walk
2026-05-24T22:06:09.848,7412,-0.15186,-0.98975,0.15332,-0.12207,-0.12207,-0.42725,1.0130022430873487,0.46080878062380715,walk
2026-05-24T22:06:09.848,7432,-0.15039,-0.98975,0.14941,-0.18311,-0.36621,-0.42725,1.0121983810992783,0.5917614373208177,walk
2026-05-24T22:06:09.848,7452,-0.14697,-0.9873,0.13965,-0.18311,-1.28174,-0.18311,1.0079005870620377,1.3076375536822122,walk
2026-05-24T22:06:09.849,7472,-0.14941,-0.98975,0.146,-0.30518,-2.01416,-0.06104,1.0115554411894585,2.038063104911131,walk
2026-05-24T22:06:09.849,7492,-0.146,-0.98804,0.16309,-0.36621,0.0,-0.24414,1.011996734036232,0.4401296441958891,walk
2026-05-24T22:06:09.849,7512,-0.1377,-0.98853,0.1521,-0.48828,2.2583,-0.36621,1.0095975737391607,2.3393259739719903,walk
2026-05-24T22:06:09.849,7532,-0.13867,-0.98999,0.13501,-0.48828,1.77002,-0.24414,1.008730523529451,1.8522938477466258,walk
2026-05-24T22:06:09.849,7552,-0.13159,-0.98633,0.14185,-0.24414,1.64795,0.12207,1.0051289566518318,1.67040253442097,walk
2026-05-24T22:06:09.849,7572,-0.13745,-0.99292,0.14404,-0.36621,2.2583,0.30518,1.0126846253893658,2.3080648791790925,walk
2026-05-24T22:06:09.849,7592,-0.15088,-0.99536,0.13428,-0.18311,1.58691,0.12207,1.0156463077272522,1.602096659100193,walk
2026-05-24T22:06:09.849,7612,-0.15283,-0.99268,0.12134,-0.12207,0.24414,0.24414,1.0116787963083935,0.36621,walk
2026-05-24T22:06:09.849,7632,-0.15576,-0.9895,0.13037,0.30518,-1.15967,0.48828,1.010132547985659,1.2947535285528284,walk
2026-05-24T22:06:10.789,7705,-0.15649,-0.98706,0.15015,0.12207,1.70898,-0.18311,1.0106045647037223,1.7230911169755359,walk
2026-05-24T22:06:10.789,7725,-0.1543,-0.98755,0.1438,0.12207,1.70898,-0.24414,1.009822723303452,1.7306409404899676,walk
2026-05-24T22:06:10.789,7745,-0.15283,-0.98779,0.14453,0.12207,2.13623,-0.12207,1.0099381237976908,2.143194060905358,walk
2026-05-24T22:06:10.789,7765,-0.14893,-0.99023,0.14233,0.18311,1.58691,-0.24414,1.0114313751807387,1.6159879206850527,walk
2026-05-24T22:06:10.789,7785,-0.15796,-0.99268,0.13892,0.18311,0.61035,-0.24414,1.0147234649893535,0.6823933866912838,walk
2026-05-24T22:06:10.789,7805,-0.16528,-0.98804,0.14355,0.18311,0.67139,-0.36621,1.0120015427359783,0.7863863988523708,walk
2026-05-24T22:06:10.789,7825,-0.16382,-0.98657,0.14478,0.36621,0.18311,-0.42725,1.0105041344299388,0.5917614373208177,walk
2026-05-24T22:06:10.789,7845,-0.16626,-0.98901,0.15039,0.18311,0.36621,-0.73242,1.0141007444036316,0.8390936137285279,walk
2026-05-24T22:06:10.789,7865,-0.1748,-0.98804,0.14844,0.12207,-0.73242,-0.85449,1.0143039560210736,1.1320306097451605,walk
2026-05-24T22:06:10.789,7885,-0.16724,-0.98828,0.16016,-0.12207,-0.30518,-1.2207,1.0150457140444464,1.2641773638615745,walk
2026-05-24T22:06:10.789,7905,-0.15674,-0.98633,0.15405,-0.30518,0.54932,-1.52588,1.0105175401743407,1.6502112195716037,walk
2026-05-24T22:06:10.789,7925,-0.16406,-0.99048,0.13452,-0.30518,-2.74658,-1.15967,1.0129471577530587,2.996943616036177,walk
2026-05-24T22:06:10.789,7945,-0.17505,-0.9873,0.1626,-0.48828,-4.5166,-1.40381,1.015796511364358,4.754868603284428,walk
2026-05-24T22:06:10.789,7965,-0.17114,-0.98145,0.18799,-0.97656,-0.79346,-2.01416,1.0138408367194527,2.3748870943268017,walk
2026-05-24T22:06:10.789,7985,-0.14868,-0.98804,0.16113,-1.15967,0.18311,-2.38037,1.0120729523606489,2.6541524292888683,walk
2026-05-24T22:06:10.789,8005,-0.15088,-0.9978,0.13403,-0.91553,-2.86865,-2.19727,1.0180047422777558,3.727645833002379,walk
2026-05-24T22:06:10.789,8025,-0.16821,-0.99756,0.14087,-1.0376,-5.31006,-2.56348,1.021403404439206,5.98705108329635,walk
2026-05-24T22:06:10.789,8045,-0.18433,-0.98389,0.16772,-1.28174,-3.96729,-3.17383,1.0149616147421536,5.239794293729478,walk
2026-05-24T22:06:10.789,8065,-0.18872,-0.98047,0.18384,-1.89209,-0.24414,-4.15039,1.0152506118688134,4.567860118239174,walk
2026-05-24T22:06:10.789,8085,-0.18945,-0.99023,0.17285,-2.38037,1.83105,-5.06592,1.0228997399061162,5.889180833171962,walk
2026-05-24T22:06:11.573,8641,-0.13477,-1.00195,0.09155,1.09863,0.61035,-2.86865,1.0151099240476371,3.1318792795859807,walk
2026-05-24T22:06:11.573,8661,-0.10986,-0.99536,0.09204,1.34277,2.01416,-3.2959,1.0056252337725025,4.0893555223898055,walk
2026-05-24T22:06:11.573,8681,-0.10986,-1.0061,0.0708,1.89209,0.97656,-3.11279,1.014553630716484,3.771357260430255,walk
2026-05-24T22:06:11.573,8701,-0.10229,-1.00464,0.09009,2.50244,-0.12207,-2.80762,1.0138446536822097,3.7629558996751475,walk
2026-05-24T22:06:11.573,8721,-0.08667,-1.00488,0.08569,2.80762,0.06104,-2.68555,1.012244179731353,3.8856961729527955,walk
2026-05-24T22:06:11.573,8741,-0.0752,-0.99805,0.0791,3.35693,-2.31934,-2.01416,1.0039998269422161,4.550292030859119,walk
2026-05-24T22:06:11.573,8761,-0.07593,-1.00098,0.09302,3.66211,-3.96729,-1.09863,1.0081562605568641,5.509757478610107,walk
2026-05-24T22:06:11.573,8781,-0.08887,-1.00537,0.09937,4.02832,-4.69971,-0.85449,1.0141701586518903,6.248582980692502,walk
2026-05-24T22:06:11.573,8801,-0.09375,-0.99902,0.10425,4.5166,-4.82178,-0.73242,1.0088102326007602,6.647230775653874,walk
2026-05-24T22:06:11.573,8821,-0.08618,-0.99438,0.11694,4.39453,-4.08936,-0.36621,1.0049345950856703,6.014055943753766,walk
2026-05-24T22:06:11.573,8841,-0.08545,-1.00098,0.10889,4.63867,-4.02832,0.18311,1.0105046734181886,6.146393305297018,walk
2026-05-24T22:06:11.573,8861,-0.09277,-1.00073,0.1189,4.82178,-6.22559,0.42725,1.0120296516407015,7.886068461470519,walk
2026-05-24T22:06:11.573,8881,-0.09766,-1.00024,0.1499,4.69971,-5.12695,0.30518,1.0161139420360297,6.961754464141922,walk
2026-05-24T22:06:11.573,8901,-0.09399,-0.99365,0.14111,4.45557,-0.97656,-0.12207,1.0080111481030356,4.562967734205448,walk
2026-05-24T22:06:11.573,8921,-0.08765,-0.99609,0.11865,4.45557,-0.85449,0.30518,1.006953639995407,4.547020125026939,walk
2026-05-24T22:06:11.573,8941,-0.0918,-1.00513,0.1084,4.82178,-3.78418,0.91553,1.0151177847422437,6.197400731088801,walk
2026-05-24T22:06:11.573,8961,-0.09399,-0.99536,0.12891,5.18799,-5.00488,1.2207,1.0080642032132676,7.3112360476529545,walk
2026-05-24T22:06:11.573,8981,-0.09351,-0.99268,0.15332,5.00488,-3.05176,1.09863,1.0087936978887209,5.963979442360612,walk
2026-05-24T22:06:11.573,9001,-0.09033,-0.99585,0.15186,4.88281,-0.85449,0.91553,1.0114040691039363,5.040851300832033,walk
2026-05-24T22:06:11.573,9021,-0.08716,-0.99268,0.13721,4.76074,-1.77002,1.46484,1.0059011045326474,5.2861491062587325,walk
2026-05-24T22:06:12.058,9437,-0.13843,-0.99146,0.177,-2.99072,5.06592,-0.91553,1.0166045428287245,5.953666663972716,walk
2026-05-24T22:06:12.058,9457,-0.13281,-0.99146,0.16602,-3.17383,5.00488,-1.15967,1.0139990473861402,6.038779279970415,walk
2026-05-24T22:06:12.058,9477,-0.12842,-0.99365,0.15918,-3.479,3.41797,-1.0376,1.014480306018801,4.986238430009139,walk
2026-05-24T22:06:12.058,9497,-0.12158,-0.99121,0.15161,-3.35693,2.68555,-1.0376,1.0100814583982818,4.422416939570488,walk
2026-05-24T22:06:12.058,9517,-0.12158,-0.99414,0.14502,-3.54004,1.28174,-0.79346,1.0119915199249447,3.847638158767012,walk
2026-05-24T22:06:12.058,9537,-0.12793,-0.99243,0.15405,-3.54004,0.91553,-0.85449,1.0124301419357289,3.7550275022428266,walk
2026-05-24T22:06:12.058,9557,-0.13013,-0.9917,0.15527,-3.78418,2.62451,-1.09863,1.0121815448821423,4.734454444748624,walk
2026-05-24T22:06:12.058,9577,-0.12744,-0.99487,0.12524,-3.60107,2.01416,-1.15967,1.010787973859998,4.2859514882228895,walk
2026-05-24T22:06:12.058,9597,-0.12988,-1.00366,0.10767,-3.23486,-0.42725,-0.97656,1.0177401627625786,3.4059552574424696,walk
2026-05-24T22:06:12.058,9617,-0.1189,-0.99487,0.12036,-2.80762,-0.91553,-0.85449,1.0091531382798153,3.0742606274354816,walk
2026-05-24T22:06:12.058,9637,-0.11816,-0.99609,0.11768,-2.62451,-2.62451,-0.48828,1.009953294019085,3.7435975796818757,walk
2026-05-24T22:06:12.058,9657,-0.11938,-0.99292,0.13892,-2.50244,-1.28174,-0.79346,1.0096734507750513,2.9214109866295774,walk
2026-05-24T22:06:12.058,9677,-0.1189,-0.99756,0.13403,-2.56348,0.67139,-0.97656,1.0135221776063905,2.8241571620750854,walk
2026-05-24T22:06:12.058,9697,-0.11279,-0.99902,0.11792,-2.31934,0.0,-0.85449,1.0122586976163752,2.4717384966254015,walk
2026-05-24T22:06:12.058,9717,-0.11206,-0.99829,0.10913,-1.95312,-2.56348,-0.54932,1.0104700513127542,3.269229252775033,walk
2026-05-24T22:06:12.058,9737,-0.10938,-0.99146,0.12695,-1.83105,-3.17383,-0.12207,1.0055213665059535,3.666175399009164,walk
2026-05-24T22:06:12.058,9757,-0.1167,-0.9895,0.15552,-2.01416,0.36621,-0.61035,1.0084223373170589,2.1362297142863635,walk
2026-05-24T22:06:12.058,9777,-0.12549,-0.99609,0.13647,-2.01416,3.84521,-1.09863,1.0131964711249244,4.477663266325417,walk
2026-05-24T22:06:12.058,9797,-0.12329,-0.99902,0.10938,-1.77002,3.96729,-1.2207,1.0125242559563696,4.5124792780133625,walk
2026-05-24T22:06:12.058,9817,-0.11865,-1.00488,0.09058,-1.2207,0.67139,-1.0376,1.0159066754874682,1.7370914720014026,walk
2026-05-24T22:06:13.021,9919,-0.11377,-0.99561,0.11792,-0.91553,1.46484,-1.52588,1.0090034744241467,2.3048343066042727,walk
2026-05-24T22:06:13.021,9939,-0.11475,-0.99536,0.1189,-0.79346,0.61035,-1.2207,1.0089828056513153,1.578674882330114,walk
2026-05-24T22:06:13.021,9959,-0.10498,-0.9939,0.12524,-0.73242,1.15967,-1.15967,1.0072452869088047,1.7961369864795946,walk
2026-05-24T22:06:13.021,9979,-0.11157,-1.00195,0.11914,-0.42725,0.54932,-0.97656,1.0151581192109924,1.1991515577690752,walk
2026-05-24T22:06:13.021,9999,-0.10376,-0.99707,0.12451,-0.48828,0.97656,-0.97656,1.0101571474775595,1.46484,walk
2026-05-24T22:06:13.021,10019,-0.11328,-1.00269,0.11548,-0.42725,-0.97656,-0.91553,1.015655071813261,1.405135999467667,walk
2026-05-24T22:06:13.021,10039,-0.12427,-0.99731,0.12939,-0.12207,-1.83105,-0.79346,1.0133173447148727,1.9993058692956414,walk
2026-05-24T22:06:13.021,10059,-0.12891,-0.98926,0.14917,-0.42725,-0.79346,-1.0376,1.0087144415541993,1.3743125896607367,walk
2026-05-24T22:06:13.021,10079,-0.12988,-0.99292,0.15356,-0.85449,2.38037,-1.64795,1.0130842089382304,3.018617845885762,walk
2026-05-24T22:06:13.021,10099,-0.13306,-0.99756,0.13818,-0.79346,3.78418,-2.0752,1.0158369109261585,4.388171838476702,walk
2026-05-24T22:06:13.021,10119,-0.12817,-0.99731,0.12183,-1.09863,3.66211,-2.2583,1.0128659012426078,4.4404905606250304,walk
2026-05-24T22:06:13.021,10139,-0.12329,-0.99756,0.1228,-1.0376,1.46484,-2.19727,1.0126234333156625,2.837316591164969,walk
2026-05-24T22:06:13.021,10159,-0.12646,-0.9939,0.1416,-1.28174,1.15967,-2.38037,1.0118695081876912,2.941743237163978,walk
2026-05-24T22:06:13.021,10179,-0.11987,-0.99414,0.14941,-1.52588,4.21143,-2.68555,1.0124260489537003,5.222703439962871,walk
2026-05-24T22:06:13.021,10199,-0.11108,-0.99658,0.14673,-2.0752,8.11768,-3.72314,1.0134298967861566,9.168694295372706,walk
2026-05-24T22:06:13.021,10219,-0.10083,-1.0022,0.11353,-2.13623,9.70459,-3.96729,1.013637306831196,10.699623153415263,walk
2026-05-24T22:06:13.021,10239,-0.08252,-0.99951,0.08911,-1.77002,5.43213,-2.92969,1.0068616501784144,6.420598931049969,walk
2026-05-24T22:06:13.021,10259,-0.08447,-1.00488,0.09033,-1.15967,-0.30518,-1.70898,1.012461606284406,2.087721720368881,walk
2026-05-24T22:06:13.021,10279,-0.08716,-1.00122,0.11768,-0.97656,-3.35693,-0.91553,1.011872984321649,3.6139789207188247,walk
2026-05-24T22:06:13.021,10299,-0.0874,-0.99854,0.1333,-0.91553,-2.74658,-0.97656,1.0111823681215966,3.0554158981880026,walk
2026-05-24T22:06:13.639,10882,-0.10889,-0.99512,0.16626,2.86865,-2.99072,1.28174,1.0147725036184219,4.337789341185208,walk
2026-05-24T22:06:13.639,10902,-0.11646,-0.99194,0.1748,2.19727,-0.67139,0.97656,1.0139343840702908,2.496483410439573,walk
2026-05-24T22:06:13.639,10922,-0.10986,-0.98828,0.18921,1.46484,3.78418,0.12207,1.012208971556763,4.0596398341355355,walk
2026-05-24T22:06:13.640,10942,-0.11011,-0.99268,0.15527,0.97656,3.05176,0.24414,1.0107653374547427,3.2134892050231003,walk
2026-05-24T22:06:13.640,10962,-0.11108,-0.99829,0.15259,0.48828,1.2207,0.18311,1.0159750974310344,1.3274242428477792,walk
2026-05-24T22:06:13.640,10982,-0.11987,-0.99585,0.15918,0.18311,1.95312,-0.12207,1.0155906221504805,1.9654790997108058,walk
2026-05-24T22:06:13.640,11002,-0.11865,-0.99365,0.14307,-0.24414,2.50244,-0.42725,1.0108843504080969,2.550363279162402,walk
2026-05-24T22:06:13.640,11022,-0.1189,-0.99683,0.13184,-0.30518,2.31934,-0.54932,1.0125161946852999,2.4029617829670116,walk
2026-05-24T22:06:13.640,11042,-0.12061,-1.00317,0.11719,-0.24414,0.18311,-0.54932,1.0171677920087716,0.6283996133830765,walk
2026-05-24T22:06:13.640,11062,-0.13013,-1.00171,0.11646,-0.06104,-1.95312,-1.0376,1.0168184068947612,2.2124686158226066,walk
2026-05-24T22:06:13.640,11082,-0.1333,-0.99609,0.13037,0.18311,-1.77002,-1.40381,1.0133906033706845,2.2665353711336604,walk
2026-05-24T22:06:13.640,11102,-0.13159,-0.99683,0.13281,0.18311,0.18311,-1.95312,1.0142112566423231,1.9702122420186106,walk
2026-05-24T22:06:13.640,11122,-0.12012,-0.99951,0.13013,-0.12207,1.09863,-2.38037,1.0150777661834585,2.6245095348845657,walk
2026-05-24T22:06:13.640,11142,-0.11865,-0.99976,0.13013,0.0,0.73242,-2.86865,1.0151510710234215,2.960674227080717,walk
2026-05-24T22:06:13.640,11162,-0.11353,-0.99683,0.13208,0.18311,1.83105,-3.17383,1.011930944383064,3.668715067090929,walk
2026-05-24T22:06:13.640,11182,-0.10425,-0.99365,0.13501,0.12207,3.72314,-3.479,1.0081845491277874,5.097069113176708,walk
2026-05-24T22:06:13.640,11202,-0.09253,-0.9978,0.12329,0.06104,4.69971,-3.35693,1.0096370956932992,5.775809812537113,walk
2026-05-24T22:06:13.640,11222,-0.08667,-1.00342,0.10767,0.30518,2.74658,-3.17383,1.0128949670128686,4.208329050549636,walk
2026-05-24T22:06:13.640,11242,-0.08496,-1.00269,0.10303,0.54932,0.42725,-2.68555,1.01154368101432,2.774251940145307,walk
2026-05-24T22:06:13.640,11262,-0.08813,-0.99658,0.11621,0.97656,-1.34277,-2.44141,1.0071957890102599,2.9524876789920733,walk
2026-05-24T22:06:14.077,11487,-0.07129,-1.00049,0.14722,2.2583,-12.20703,-0.73242,1.013773264887174,12.435752464861144,walk
2026-05-24T22:06:14.077,11507,-0.08081,-0.99634,0.17383,2.0752,-12.57324,-0.61035,1.014613483352158,12.757952275349677,walk
2026-05-24T22:06:14.077,11527,-0.08765,-0.99194,0.19263,1.28174,-9.70459,-0.91553,1.0142651541879963,9.83158785123746,walk
2026-05-24T22:06:14.077,11547,-0.08276,-0.98975,0.20312,0.30518,-4.88281,-1.77002,1.0137613202820475,5.202685761114157,walk
2026-05-24T22:06:14.077,11567,-0.07397,-0.98877,0.20312,-0.67139,0.61035,-2.31934,1.0121242059154598,2.4905079181163026,walk
2026-05-24T22:06:14.077,11587,-0.06396,-0.99048,0.18823,-1.40381,5.67627,-2.86865,1.0102336585661755,6.513054310498263,walk
2026-05-24T22:06:14.077,11607,-0.05615,-0.99219,0.16968,-2.13623,9.64355,-3.23486,1.0081592736269405,10.393548693059556,walk
2026-05-24T22:06:14.077,11627,-0.06396,-0.99609,0.1521,-2.50244,12.3291,-3.2959,1.009663597293673,13.005070917669,walk
2026-05-24T22:06:14.077,11647,-0.08569,-1.00342,0.11841,-2.62451,16.29639,-3.78418,1.0140095663256832,16.934591759017987,walk
2026-05-24T22:06:14.077,11667,-0.08032,-1.00513,0.07764,-2.01416,17.8833,-3.96729,1.0113187375402477,18.42847387440696,walk
2026-05-24T22:06:14.077,11687,-0.06665,-1.00122,0.08447,-1.40381,13.79395,-3.17383,1.0069850504352087,14.223815802642413,walk
2026-05-24T22:06:14.077,11707,-0.06323,-1.00586,0.1062,-0.61035,10.62012,-2.44141,1.0134252870833647,10.914209028830262,walk
2026-05-24T22:06:14.077,11727,-0.06836,-1.00391,0.13086,-0.61035,12.75635,-2.62451,1.0147081931767379,13.037831306820165,walk
2026-05-24T22:06:14.077,11747,-0.04565,-1.00049,0.13037,-0.73242,17.7002,-3.17383,1.0099804451077259,17.99740859027488,walk
2026-05-24T22:06:14.077,11767,-0.04053,-1.00513,0.11182,-0.48828,19.89746,-2.68555,1.012142633327932,20.08381215338612,walk
2026-05-24T22:06:14.077,11787,-0.03687,-1.00806,0.07861,-0.18311,16.17432,-2.0752,1.0117924157652103,16.307930947072965,walk
2026-05-24T22:06:14.077,11807,-0.04175,-1.0105,0.06177,0.67139,4.82178,-0.06104,1.013246685363441,4.868680805115488,walk
2026-05-24T22:06:14.077,11827,-0.04639,-1.00293,0.09766,1.28174,-3.17383,1.40381,1.0087408451133522,3.6995590024488054,walk
2026-05-24T22:06:14.077,11847,-0.05859,-1.00195,0.12988,1.46484,-5.18799,2.01416,1.0120303379839952,5.754809898797701,walk
2026-05-24T22:06:14.077,11867,-0.04932,-0.99731,0.15308,1.28174,-2.0752,1.89209,1.0101946272377418,3.086959189186018,walk
2026-05-24T22:06:15.071,11936,-0.08887,-1.00146,0.13208,1.0376,-5.00488,3.54004,1.0140340896143483,6.217501168154293,walk
2026-05-24T22:06:15.071,11956,-0.08643,-1.0,0.14038,0.97656,-1.52588,2.99072,1.013497256681043,3.49662484782111,walk
2026-05-24T22:06:15.071,11976,-0.07422,-1.00049,0.1333,0.85449,2.50244,2.56348,1.0120561933509424,3.682904943668788,walk
2026-05-24T22:06:15.071,11996,-0.07031,-1.00366,0.0957,0.97656,2.13623,2.68555,1.010660863841081,3.5678182197247663,walk
2026-05-24T22:06:15.071,12016,-0.08545,-1.00684,0.08203,1.52588,-3.17383,3.479,1.0137837091806121,4.950247230522936,walk
2026-05-24T22:06:15.071,12036,-0.09741,-1.00366,0.11011,2.0752,-8.36182,3.90625,1.0143699107327662,9.459665840551663,walk
2026-05-24T22:06:15.071,12056,-0.10205,-1.00513,0.14819,2.13623,-7.69043,3.66211,1.021107631692174,8.781642320767796,walk
2026-05-24T22:06:15.071,12076,-0.09497,-0.9978,0.13281,2.0752,-9.52148,3.60107,1.0110700455458068,10.38906836897804,walk
2026-05-24T22:06:15.071,12096,-0.11694,-0.99927,0.14941,2.0752,-16.11328,3.96729,1.017122826702852,16.723744716495165,walk
2026-05-24T22:06:15.071,12116,-0.16162,-0.99902,0.1814,1.77002,-13.3667,2.68555,1.0281380961719102,13.74822964940941,walk
2026-05-24T22:06:15.071,12136,-0.17456,-0.98071,0.20532,0.67139,-8.54492,0.85449,1.0170642064786273,8.613743407984707,walk
2026-05-24T22:06:15.071,12156,-0.18188,-0.97925,0.2395,-0.67139,-1.83105,-1.15967,1.0243881817455724,2.2689960651133796,walk
2026-05-24T22:06:15.071,12176,-0.16919,-0.98877,0.22681,-2.01416,3.84521,-3.17383,1.0284620290025297,5.377329943252506,walk
2026-05-24T22:06:15.071,12196,-0.13721,-0.98999,0.18628,-3.11279,5.12695,-4.57764,1.016664655921509,7.545188258499585,walk
2026-05-24T22:06:15.071,12216,-0.11548,-0.99731,0.15918,-3.54004,1.46484,-4.63867,1.016514209885922,6.016219643272676,walk
2026-05-24T22:06:15.071,12236,-0.10181,-0.99585,0.15894,-4.02832,0.79346,-5.18799,1.0135800028611457,6.6160547937649365,walk
2026-05-24T22:06:15.071,12256,-0.0957,-0.99707,0.14526,-4.27246,2.68555,-5.61523,1.0121302003694979,7.549629209901636,walk
2026-05-24T22:06:15.071,12276,-0.08472,-0.99902,0.12378,-4.21143,5.98145,-6.16455,1.0102177622671262,9.566376714822598,walk
2026-05-24T22:06:15.071,12296,-0.06763,-1.00464,0.09302,-3.90625,7.93457,-6.34766,1.01120129890146,10.886182876610148,walk
2026-05-24T22:06:15.071,12316,-0.05835,-1.01025,0.0686,-3.11279,5.98145,-5.92041,1.0142562521374963,8.973207913266025,walk
2026-05-24T22:06:15.877,12931,-0.06494,-1.00342,0.12061,0.24414,2.44141,-0.12207,1.0127268496983777,2.456621300200745,walk
2026-05-24T22:06:15.877,12951,-0.05127,-1.00464,0.10815,0.30518,1.0376,-0.06104,1.011744317997388,1.0832702682156472,walk
2026-05-24T22:06:15.877,12971,-0.05273,-1.00684,0.1106,0.54932,-0.54932,0.18311,1.014268011178505,0.7981442206142948,walk
2026-05-24T22:06:15.877,12991,-0.05933,-1.00439,0.11646,0.61035,-0.79346,0.24414,1.0128584563501457,1.0303932422623898,walk
2026-05-24T22:06:15.877,13011,-0.05981,-0.99927,0.12524,0.61035,0.12207,0.24414,1.0088621444974533,0.6686049259465562,walk
2026-05-24T22:06:15.877,13031,-0.05615,-1.00391,0.12622,0.61035,0.67139,0.18311,1.013370415494749,0.9256462211341868,walk
2026-05-24T22:06:15.877,13051,-0.04541,-1.00171,0.12158,0.30518,0.54932,0.24414,1.0100825157381947,0.6741599471935426,walk
2026-05-24T22:06:15.877,13071,-0.04468,-1.00342,0.12769,0.36621,0.12207,0.48828,1.0124982641466602,0.6224373120242712,walk
2026-05-24T22:06:15.877,13091,-0.04224,-1.0022,0.12646,0.24414,0.18311,0.61035,1.011029766723018,0.6823933866912838,walk
2026-05-24T22:06:15.877,13111,-0.04346,-0.9978,0.14014,-0.06104,1.52588,0.97656,1.0085300348527058,1.8126513977044785,walk
2026-05-24T22:06:15.877,13131,-0.04224,-1.0022,0.12695,-0.18311,0.67139,1.28174,1.0110911729908436,1.4584756534820869,walk
2026-05-24T22:06:15.877,13151,-0.04565,-1.00293,0.13501,-0.42725,0.85449,1.28174,1.0130055318210263,1.598609755443773,walk
2026-05-24T22:06:15.877,13171,-0.05859,-1.00391,0.1167,-0.48828,-1.52588,1.77002,1.0123670116118957,2.387404015494654,walk
2026-05-24T22:06:15.877,13191,-0.06445,-1.00195,0.13037,-0.54932,-0.24414,1.64795,1.0124494762209124,1.7541653298648905,walk
2026-05-24T22:06:15.877,13211,-0.06641,-1.0022,0.11572,-0.42725,0.54932,1.46484,1.0110421586165435,1.621743275151773,walk
2026-05-24T22:06:15.877,13231,-0.06079,-1.00464,0.08813,-0.24414,-1.64795,2.13623,1.0103285854611854,2.709026052846299,walk
2026-05-24T22:06:15.877,13251,-0.05225,-1.01099,0.06421,0.48828,-5.85937,2.80762,1.01437358340012,6.515624622375049,walk
2026-05-24T22:06:15.877,13271,-0.04321,-1.00684,0.09497,1.0376,-5.85937,2.80762,1.012231786993473,6.579632255779954,walk
2026-05-24T22:06:15.877,13291,-0.05371,-1.00635,0.10522,1.34277,-6.46973,3.17383,1.0132602503799308,7.3303229406827635,walk
2026-05-24T22:06:15.877,13311,-0.05835,-1.0022,0.12891,1.28174,-5.12695,2.99072,1.0121399856739184,6.0723043277243605,walk
2026-05-24T22:06:16.794,13728,-0.06934,-0.9939,0.1626,1.70898,5.92041,-0.79346,1.0094969071770354,6.213006195079803,walk
2026-05-24T22:06:16.794,13748,-0.06104,-0.99829,0.13916,1.40381,4.3335,-0.30518,1.009789241030028,4.565417790137065,walk
2026-05-24T22:06:16.794,13768,-0.05981,-1.00146,0.13257,1.52588,2.01416,0.06104,1.0119654997083645,2.5276226303781977,walk
2026-05-24T22:06:16.794,13788,-0.06543,-0.99512,0.12695,1.34277,0.18311,0.54932,1.0053164684814428,1.4622971679518495,walk
2026-05-24T22:06:16.794,13808,-0.06396,-1.00488,0.09863,1.77002,-4.45557,1.52588,1.0117324611279406,5.031240860831451,walk
2026-05-24T22:06:16.794,13828,-0.07739,-1.00562,0.10889,2.19727,-11.53564,2.62451,1.014454448755586,12.03274858054468,walk
2026-05-24T22:06:16.794,13848,-0.08154,-0.99951,0.13916,2.44141,-15.13672,2.86865,1.0124398833017199,15.598395044651229,walk
2026-05-24T22:06:16.794,13868,-0.0979,-0.99902,0.17188,2.19727,-15.86914,2.74658,1.0184145053955191,16.25427025396403,walk
2026-05-24T22:06:16.794,13888,-0.08521,-0.9939,0.19458,1.40381,-13.30566,1.89209,1.0163460682759589,13.512633907562211,walk
2026-05-24T22:06:16.794,13908,-0.08765,-0.98657,0.20337,0.85449,-6.10352,1.0376,1.0111193027036918,6.249777860892337,walk
2026-05-24T22:06:16.794,13928,-0.0835,-0.99146,0.18628,-0.18311,-2.19727,0.48828,1.0122575857952363,2.258305135140068,walk
2026-05-24T22:06:16.794,13948,-0.07495,-0.99414,0.18311,-0.79346,-2.68555,0.24414,1.013637565503568,2.8109361276450238,walk
2026-05-24T22:06:16.794,13968,-0.07813,-0.99414,0.18188,-1.40381,-0.24414,-0.06104,1.0136562390179424,1.426188184392228,walk
2026-05-24T22:06:16.794,13988,-0.07227,-0.99438,0.15381,-1.83105,1.40381,-0.30518,1.0087973301907573,2.327350736567224,walk
2026-05-24T22:06:16.794,14008,-0.07568,-0.9978,0.1438,-1.95312,-0.67139,0.12207,1.010945469548185,2.06889906747526,walk
2026-05-24T22:06:16.794,14028,-0.07275,-0.9978,0.15405,-2.01416,-0.06104,0.06104,1.012239499822053,2.0160089952180273,walk
2026-05-24T22:06:16.794,14048,-0.05542,-0.99561,0.14893,-2.31934,-0.54932,0.36621,1.0082116808488186,2.4114726334959724,walk
2026-05-24T22:06:16.794,14068,-0.05493,-0.99707,0.15796,-2.38037,-2.50244,1.09863,1.0109981460912774,3.624273053648138,walk
2026-05-24T22:06:16.794,14088,-0.07471,-1.00073,0.15381,-2.74658,-1.0376,0.91553,1.0152337824855908,3.075469173524586,walk
2026-05-24T22:06:16.794,14108,-0.06592,-1.00122,0.13672,-2.99072,0.24414,0.91553,1.0126595149407327,3.137228974572943,walk
2026-05-24T22:06:17.324,14730,-0.15576,-0.94702,0.09619,-4.76074,-11.2915,13.00049,0.9645520069441564,17.86547950203688,walk
2026-05-24T22:06:17.324,14750,-0.13647,-0.89917,0.10034,-3.54004,-6.89697,7.8125,0.9149857186863629,11.006145312165382,walk
2026-05-24T22:06:17.324,14770,-0.17651,-0.93945,0.07178,-0.30518,-9.39941,3.17383,0.9585793921214872,9.925484373540668,walk
2026-05-24T22:06:17.324,14790,-0.146,-0.91699,0.05737,3.2959,-11.59668,-3.17383,0.9303106884261838,12.466721329254938,walk
2026-05-24T22:06:17.325,14810,-0.11499,-0.91406,0.06372,6.34766,-22.2168,-7.38525,0.9234655500342176,24.2573887151544,walk
2026-05-24T22:06:17.325,14830,-0.09937,-0.93921,0.09912,9.15527,-28.38135,-11.53564,0.9496391922198661,31.97484928510219,walk
2026-05-24T22:06:17.325,14850,-0.0791,-0.92798,0.15967,10.62012,-24.41406,-16.8457,0.9449329073008306,31.505727780643316,walk
2026-05-24T22:06:17.325,14870,-0.06494,-0.9043,0.18604,12.02393,-15.50293,-23.62061,0.9255196244272728,30.705845502149913,walk
2026-05-24T22:06:17.325,14890,-1.00269,-2.15796,-0.30884,10.0708,0.73242,-18.43262,2.3994917677083207,21.01711045221964,walk
2026-05-24T22:06:17.325,14910,-0.18188,-1.0144,0.26196,2.19727,35.40039,-41.50391,1.063348830817056,54.59478137050372,walk
2026-05-24T22:06:17.325,14930,-0.177,-0.85254,0.19019,2.62451,24.96338,-36.25488,0.8912495092284763,44.096198448153096,walk
2026-05-24T22:06:17.325,14950,0.03198,-0.86523,0.18188,5.7373,14.4043,-33.14209,0.8847180385297906,36.58959687326577,walk
2026-05-24T22:06:17.325,14970,-0.11841,-1.00146,0.17871,4.94385,10.74219,-32.53174,1.0241485848254637,34.614309270100996,walk
2026-05-24T22:06:17.325,14990,-0.21387,-0.98706,0.21997,3.72314,20.26367,-35.40039,1.0336414375401173,40.95931768817201,walk
2026-05-24T22:06:17.325,15010,-0.1499,-0.99146,0.19067,2.92969,27.771,-37.78076,1.0206948567030207,46.980818965549126,walk
2026-05-24T22:06:17.325,15030,-0.03564,-0.98291,0.12427,2.86865,20.26367,-36.62109,0.9913754639893001,41.9517545220638,walk
2026-05-24T22:06:17.325,15050,0.01343,-0.97119,0.14575,2.50244,13.18359,-34.60693,0.9821575451525075,37.117500660289615,walk
2026-05-24T22:06:17.325,15070,-0.01465,-0.97681,0.17261,2.01416,20.1416,-34.79004,0.9920517177546743,40.250313964827654,walk
2026-05-24T22:06:17.325,15090,-0.05444,-0.9812,0.10059,1.95312,22.64404,-34.48486,0.9878438650414346,41.30100234226283,walk
2026-05-24T22:06:17.325,15110,-0.03174,-1.00049,0.03589,3.479,17.8833,-33.5083,1.0016365407671588,38.1408184073179,walk
2026-05-24T22:06:17.767,15173,0.01563,-0.9812,0.25977,5.00488,2.38037,-30.63965,1.0151247163772539,31.136845332721165,walk
2026-05-24T22:06:17.767,15193,0.05225,-0.97803,0.1748,3.78418,4.82178,-30.63965,0.9949008912449521,31.246723552451062,walk
2026-05-24T22:06:17.767,15213,0.04907,-0.97314,0.18994,2.86865,10.49805,-30.45654,0.9927167411200438,32.34252673179076,walk
2026-05-24T22:06:17.767,15233,0.04468,-0.99316,0.1438,2.38037,12.57324,-30.76172,1.0045105912831385,33.31720190521557,walk
2026-05-24T22:06:17.767,15253,0.05054,-1.00195,0.08276,3.05176,2.01416,-29.1748,1.0066316663507064,29.403044649205974,walk
2026-05-24T22:06:17.767,15273,0.03125,-0.99121,0.11475,3.54004,-1.09863,-28.93066,0.9983192821437439,29.167138342903986,walk
2026-05-24T22:06:17.767,15293,0.01831,-0.98853,0.10913,3.72314,3.05176,-29.90723,0.9947040634781784,30.292200594048957,walk
2026-05-24T22:06:17.767,15313,0.01636,-0.98608,0.12646,4.08936,4.39453,-30.76172,0.9942904744590486,31.341955530708354,walk
2026-05-24T22:06:17.767,15333,0.0144,-0.98267,0.15674,4.27246,3.78418,-31.61621,0.9951960191339192,32.12722626508706,walk
2026-05-24T22:06:17.767,15353,-0.00562,-0.98486,0.14795,3.84521,13.85498,-33.93555,0.9959267073936716,36.85603972956128,walk
2026-05-24T22:06:17.767,15373,0.0127,-0.979,0.12451,3.90625,18.85986,-36.01074,0.9869675932369816,40.837807282341934,walk
2026-05-24T22:06:17.767,15393,0.01831,-0.98608,0.12549,4.5166,20.87402,-37.90283,0.9942015704071282,43.50573420285308,walk
2026-05-24T22:06:17.767,15413,0.05078,-0.98145,0.12329,4.69971,23.31543,-39.48975,0.9904661200667089,46.09920720827528,walk
2026-05-24T22:06:17.767,15433,0.06323,-0.96704,0.0835,5.49316,24.78027,-40.58838,0.9726955559166496,47.87121451439163,walk
2026-05-24T22:06:17.767,15453,0.03369,-0.97876,0.0896,6.95801,22.03369,-41.74805,0.9834298722837332,47.71579483754515,walk
2026-05-24T22:06:17.767,15473,0.01318,-0.97485,0.10449,8.05664,19.89746,-43.33496,0.9805225112153213,48.360491320320556,walk
2026-05-24T22:06:17.767,15493,0.03784,-0.96143,0.1438,8.91113,22.82715,-45.8374,0.9728607045718313,51.976477889131736,walk
2026-05-24T22:06:17.767,15513,0.07837,-0.93677,0.18506,8.91113,31.43311,-49.01123,0.958085118034927,58.902880305311896,walk
2026-05-24T22:06:17.767,15533,0.10059,-0.9292,0.21069,8.48389,44.06738,-52.30713,0.9580820759204297,68.91985358685406,walk
2026-05-24T22:06:17.767,15553,0.13989,-0.927,0.25122,7.99561,57.73926,-55.41992,0.9705718420086171,80.43083648344147,walk
2026-05-24T22:06:18.218,15622,0.24438,-0.89062,0.16528,9.76562,65.67383,-58.34961,0.9382126876140612,88.39172058516226,walk
2026-05-24T22:06:18.218,15642,0.26147,-0.91479,0.16016,11.2915,52.85645,-55.9082,0.9648101007970429,77.76264595609193,walk
2026-05-24T22:06:18.218,15662,0.32422,-0.91577,0.1709,13.24463,32.16553,-51.94092,0.9863874042687284,62.51320432088088,walk
2026-05-24T22:06:18.218,15682,0.40771,-0.91724,0.19482,14.5874,13.97705,-47.66846,1.0225025643488628,51.77289101676765,walk
2026-05-24T22:06:18.218,15702,0.49854,-0.92456,0.21289,15.44189,-3.96729,-41.3208,1.0717627896601,44.28995223926302,walk
2026-05-24T22:06:18.218,15722,0.51709,-0.96826,0.25098,15.25879,-18.98193,-34.36279,1.1260108596723213,42.1182344759737,walk
2026-05-24T22:06:18.218,15742,0.50195,-1.05981,0.29248,12.93945,-20.50781,-25.5127,1.2085923998602672,35.19797577402144,walk
2026-05-24T22:06:18.218,15762,0.26904,-1.29443,0.21753,9.70459,-17.76123,-9.21631,1.3398697128452453,22.23917103214731,walk
2026-05-24T22:06:18.218,15782,0.24805,-1.25586,0.21436,6.95801,-7.93457,0.0,1.2979458200171532,10.55326036090269,walk
2026-05-24T22:06:18.218,15802,0.20874,-1.22363,0.15576,4.45557,-13.85498,14.34326,1.2510411432482946,20.433836699281414,walk
2026-05-24T22:06:18.218,15822,0.18286,-1.18726,0.17285,2.19727,-22.52197,25.93994,1.2136314142687639,34.423068069790055,walk
2026-05-24T22:06:18.218,15842,0.16504,-1.16626,0.2002,-0.36621,-26.7334,35.21729,1.19477220807985,44.21613167462979,walk
2026-05-24T22:06:18.218,15862,0.17944,-1.15503,0.2417,-2.74658,-23.98682,39.73389,1.1936129626055507,46.49401305481062,walk
2026-05-24T22:06:18.218,15882,0.13159,-1.11841,0.23511,-5.85937,-15.01465,44.7998,1.150405827653876,47.61086022599675,walk
2026-05-24T22:06:18.218,15902,0.13892,-1.10693,0.21118,-8.8501,-5.79834,50.04883,1.1354249352995556,51.154964579544966,walk
2026-05-24T22:06:18.218,15922,0.14063,-1.08813,0.18481,-11.16943,-2.19727,55.48096,1.1126358029022796,56.63674676832525,walk
2026-05-24T22:06:18.218,15942,0.14819,-1.04834,0.16479,-13.30566,-3.479,61.4624,1.0715095780253203,62.982304203606276,walk
2026-05-24T22:06:18.219,15962,0.15234,-1.00513,0.16357,-15.56396,-4.21143,67.26074,1.0296839016902228,69.16632228819239,walk
2026-05-24T22:06:18.219,15982,0.15015,-0.95947,0.16333,-17.7002,0.97656,71.83838,0.9847864704086872,73.99326719707679,walk
2026-05-24T22:06:18.219,16002,0.16138,-0.9314,0.14282,-19.89746,4.45557,76.66016,0.9560057619073224,79.32553907602583,walk
2026-05-24T22:06:18.670,16075,0.10718,-0.90063,0.09155,-23.01025,-11.53564,92.10205,0.9115938524364894,95.63121984725805,walk
2026-05-24T22:06:18.670,16095,0.0896,-0.89624,0.09595,-23.01025,-16.54053,93.81104,0.9058038971543455,97.99781611661048,walk
2026-05-24T22:06:18.670,16115,0.06909,-0.87817,0.10718,-24.23096,-19.04297,93.32275,0.8873801493159513,98.27975272916085,walk
2026-05-24T22:06:18.670,16135,0.03442,-0.88306,0.11792,-25.08545,-15.13672,89.35547,0.8915631365192259,94.03616385721931,walk
2026-05-24T22:06:18.670,16155,-0.01953,-0.89331,0.11401,-21.91162,-15.25879,90.02686,0.900767704294509,93.90306323410381,walk
2026-05-24T22:06:18.670,16175,-0.02197,-0.90308,0.11475,-22.88818,-6.28662,87.58545,0.9106062430051751,90.7447046743737,walk
2026-05-24T22:06:18.670,16195,-0.03735,-0.90723,0.06689,-21.97266,-7.8125,83.8623,0.9104589872696078,87.04434677229533,walk
2026-05-24T22:06:18.670,16215,-0.06348,-0.9021,0.07324,-19.77539,-13.42773,80.07813,0.9072916939992342,83.5695930760818,walk
2026-05-24T22:06:18.670,16235,-0.07129,-0.92041,0.0708,-18.73779,-13.3667,76.17188,0.9258776766938492,79.57341733084297,walk
2026-05-24T22:06:18.670,16255,-0.10083,-0.97046,0.06201,-15.99121,-14.4043,70.49561,0.9776525664058782,73.70775864877591,walk
2026-05-24T22:06:18.670,16275,-0.11914,-0.99927,0.07764,-13.00049,-14.09912,64.45313,1.009337823575437,67.24584665101185,walk
2026-05-24T22:06:18.670,16295,-0.14136,-0.99536,0.0791,-13.85498,-3.41797,57.43408,1.0084547531743802,59.18037288804203,walk
2026-05-24T22:06:18.670,16315,-0.11792,-0.97607,0.08765,-12.81738,2.80762,50.53711,0.9870665093092764,52.21271346406831,walk
2026-05-24T22:06:18.670,16335,-0.13354,-0.98535,0.05664,-11.47461,-4.5166,45.34912,0.9959697001917277,46.995840613680905,walk
2026-05-24T22:06:18.670,16355,-0.14746,-0.99023,0.04907,-9.76562,-16.54053,40.89355,1.0023511208154556,45.18007191525706,walk
2026-05-24T22:06:18.670,16375,-0.15698,-0.97925,0.09692,-8.30078,-20.69092,34.729,0.9964771795179255,41.26888125518791,walk
2026-05-24T22:06:18.670,16395,-0.15332,-0.99463,0.12671,-7.62939,-14.83154,27.09961,1.014323066581846,31.82092130494967,walk
2026-05-24T22:06:18.670,16415,-0.14624,-1.04932,0.15259,-7.20215,-11.04736,19.71436,1.0703935295488292,23.718581698779968,walk
2026-05-24T22:06:18.670,16435,-0.14014,-1.09668,0.20166,-7.75146,-4.39453,11.47461,1.1238385104631359,14.528031549545863,walk
2026-05-24T22:06:18.670,16455,-0.14038,-1.09961,0.21143,-8.66699,13.67188,1.15967,1.1285173199379794,16.22904349933785,walk
2026-05-24T22:06:19.168,16529,-0.10449,-0.90796,0.08228,-4.88281,8.78906,-25.45166,0.9176489089515663,27.36560625923168,walk
2026-05-24T22:06:19.168,16549,-0.04419,-0.89233,0.08374,-3.41797,-4.45557,-26.7334,0.8973393854055443,27.316831780164406,walk
2026-05-24T22:06:19.168,16569,0.00171,-0.94336,0.09595,-1.58691,-20.1416,-25.87891,0.9482285674878183,32.83169682937816,walk
2026-05-24T22:06:19.168,16589,0.00195,-0.96362,0.13135,-0.73242,-29.41895,-26.67236,0.9725328423246179,39.71682069512236,walk
2026-05-24T22:06:19.168,16609,-0.03345,-0.9707,0.15601,-0.30518,-25.75684,-30.2124,0.9837258320284165,39.702607664711394,walk
2026-05-24T22:06:19.168,16629,-0.05664,-0.95703,0.2063,0.73242,-11.04736,-33.81348,0.9806498868097625,35.57993861344339,walk
2026-05-24T22:06:19.168,16649,0.00488,-0.97021,0.17651,1.09863,-0.48828,-40.34424,0.9861475744532356,40.3621494275627,walk
2026-05-24T22:06:19.168,16669,-0.0105,-0.98096,0.1228,4.02832,-0.48828,-43.64014,0.9886721456580032,43.82838804474105,walk
2026-05-24T22:06:19.168,16689,-0.54272,-2.40649,0.19922,-2.31934,-8.72803,14.83154,2.474960146527616,17.364689012133216,walk
2026-05-24T22:06:19.168,16709,-0.16943,-1.24585,0.54272,4.63867,30.51758,-28.9917,1.369450161853289,42.348065095294494,walk
2026-05-24T22:06:19.168,16729,-0.27295,-0.99683,0.20337,1.52588,72.75391,-47.54639,1.0533428256270605,86.92593935123509,walk
2026-05-24T22:06:19.169,16749,0.01563,-0.84668,0.06812,10.68115,28.19824,-36.86523,0.8495596822472216,47.62638856110129,walk
2026-05-24T22:06:19.169,16769,-0.10718,-0.93066,-0.08716,8.78906,-4.69971,-29.05273,0.9408572971497856,30.714751671153067,walk
2026-05-24T22:06:19.169,16789,-0.13354,-1.00537,0.16138,8.11768,-11.1084,-28.56445,1.0269592362406603,31.705221698403246,walk
2026-05-24T22:06:19.169,16809,-0.22388,-0.99219,0.26489,5.67627,11.04736,-33.02002,1.0510613505404907,35.27868938726183,walk
2026-05-24T22:06:19.169,16829,-0.2207,-0.99219,0.18188,4.57764,16.8457,-36.07178,1.0325840500898704,40.0737533658628,walk
2026-05-24T22:06:19.169,16849,-0.19702,-0.96094,0.11157,3.78418,8.66699,-36.37695,0.9872539839879099,37.58615736191983,walk
2026-05-24T22:06:19.169,16869,-0.20679,-0.96094,0.13208,2.80762,2.31934,-36.86523,0.9917726120941232,37.044665622095984,walk
2026-05-24T22:06:19.169,16889,-0.22241,-1.00146,0.15747,1.95312,1.0376,-39.42871,1.037875301083902,39.49068831710205,walk
2026-05-24T22:06:19.169,16909,-0.15259,-0.9668,0.12817,1.34277,5.7373,-41.50391,0.9871238508920752,41.92009288934126,walk
2026-05-24T22:06:19.642,17017,0.01782,-1.01953,-0.04834,6.16455,-9.46045,-41.56494,1.020830901227035,43.07140615429916,walk
2026-05-24T22:06:19.642,17037,0.0061,-0.96948,0.08008,6.89697,-2.0752,-42.78564,0.9728008464223291,43.38762082011988,walk
2026-05-24T22:06:19.642,17057,0.03687,-0.9707,0.05103,6.7749,13.91602,-44.43359,0.9727394038487389,47.05208606362209,walk
2026-05-24T22:06:19.642,17077,0.07544,-0.98462,-0.03491,8.72803,16.23535,-44.6167,0.9881226877771809,48.274372250640404,walk
2026-05-24T22:06:19.642,17097,0.06885,-0.98853,-0.01904,10.92529,17.51709,-44.73877,0.9911076656953068,49.27238521489598,walk
2026-05-24T22:06:19.642,17117,0.10083,-0.9873,-0.00977,13.18359,11.41357,-43.82324,0.9924834667640564,47.165167120774626,walk
2026-05-24T22:06:19.642,17137,0.1189,-0.97412,0.04102,14.34326,17.33398,-44.12842,0.9822065082252306,49.53295288759191,walk
2026-05-24T22:06:19.642,17157,0.12158,-0.97729,-0.00928,16.17432,15.74707,-43.70117,0.9848672798402839,49.187102988651404,walk
2026-05-24T22:06:19.642,17177,0.12817,-0.94507,0.02832,18.12744,10.13184,-44.06738,0.954141958096383,48.71542099585715,walk
2026-05-24T22:06:19.642,17197,0.06665,-0.96704,0.09082,18.43262,13.48877,-44.67773,0.9735794043117387,50.17776354253146,walk
2026-05-24T22:06:19.642,17217,0.07397,-0.95703,0.12305,18.61572,19.47021,-46.20361,0.9677392646265832,53.48277933685384,walk
2026-05-24T22:06:19.642,17237,0.12744,-0.96509,0.10278,19.34814,18.49365,-46.56982,0.9788786391070141,53.71325485031139,walk
2026-05-24T22:06:19.642,17257,0.21021,-0.94678,0.10547,20.62988,8.72803,-45.22705,0.9755534497914504,50.470352764744966,walk
2026-05-24T22:06:19.642,17277,0.24854,-0.9209,0.18164,20.56885,5.79834,-44.31152,0.9709902322886673,49.195621164779496,walk
2026-05-24T22:06:19.642,17297,0.24878,-0.92773,0.20947,20.1416,1.95312,-43.15186,0.98308296811612,47.661113601698396,walk
2026-05-24T22:06:19.642,17317,0.26001,-0.93555,0.22559,19.16504,-2.62451,-41.74805,0.996870026984461,46.011808155561546,walk
2026-05-24T22:06:19.642,17337,0.29395,-0.91284,0.25781,17.94434,-1.58691,-40.77148,0.9930505849149881,44.57388476197806,walk
2026-05-24T22:06:19.642,17357,0.30933,-0.90991,0.24316,16.8457,-2.0752,-40.03906,0.9913364931243074,43.48804880899579,walk
2026-05-24T22:06:19.642,17377,0.31274,-0.93213,0.20459,16.35742,-4.27246,-38.69629,1.004255800381556,42.228212882764765,walk
2026-05-24T22:06:19.642,17397,0.34863,-0.95825,0.16919,16.78467,-12.63428,-36.49902,1.03363978033936,42.11328340426213,walk
2026-05-24T22:06:20.090,17498,0.20703,-1.27954,0.15503,13.18359,-36.62109,15.07568,1.305418834474208,41.739518511101686,walk
2026-05-24T22:06:20.090,17518,0.14502,-1.19629,0.15186,11.35254,-37.04834,24.71924,1.214578949307125,45.96194607917293,walk
2026-05-24T22:06:20.091,17538,0.09644,-1.11694,0.19678,8.05664,-29.47998,31.79932,1.1382346004229533,44.10414290463426,walk
2026-05-24T22:06:20.091,17558,0.07031,-1.06665,0.19263,4.57764,-22.09473,37.78076,1.0861823214819877,44.00588265130129,walk
2026-05-24T22:06:20.091,17578,0.06592,-1.03638,0.19067,1.09863,-11.65771,43.15186,1.0558333200368324,44.712327291034626,walk
2026-05-24T22:06:20.091,17598,0.06323,-1.00317,0.14136,-1.64795,-4.39453,48.40088,1.015052083097217,48.627901639879546,walk
2026-05-24T22:06:20.091,17618,0.07007,-0.98853,0.0957,-3.479,-3.90625,54.26025,0.9956203371767774,54.51180569495933,walk
2026-05-24T22:06:20.091,17638,0.07031,-0.97729,0.07983,-4.69971,-7.32422,60.36377,0.9830625967353249,60.9878365029077,walk
2026-05-24T22:06:20.091,17658,0.07568,-0.97363,0.0752,-5.5542,-11.04736,65.7959,0.9794579517774105,66.94769419046186,walk
2026-05-24T22:06:20.091,17678,0.06274,-0.97266,0.08691,-6.71387,-13.48877,70.37354,0.978548481834191,71.96845210660989,walk
2026-05-24T22:06:20.091,17698,0.05835,-0.96948,0.1228,-8.17871,-8.66699,73.48633,0.9789668191006271,74.44628069818599,walk
2026-05-24T22:06:20.091,17718,0.05811,-0.95605,0.11938,-9.58252,-4.82178,76.29395,0.9652253410473639,77.04440965132576,walk
2026-05-24T22:06:20.091,17738,0.05908,-0.94214,0.11548,-11.04736,-4.69971,78.91846,0.9510277894993394,79.82640393895556,walk
2026-05-24T22:06:20.091,17758,0.04883,-0.93384,0.11743,-12.26807,-6.71387,81.23779,0.9424602481802615,82.43276118137679,walk
2026-05-24T22:06:20.091,17778,0.05029,-0.92871,0.15747,-13.5498,-3.05176,82.51953,0.9433070280136792,83.68024349007656,walk
2026-05-24T22:06:20.091,17798,0.05688,-0.94043,0.17188,-15.31982,0.97656,83.37402,0.9576986236285401,84.77545496915012,walk
2026-05-24T22:06:20.091,17818,0.05151,-0.95923,0.1958,-16.96777,8.05664,83.12988,0.9803637656502815,85.22553382453465,walk
2026-05-24T22:06:20.091,17838,0.06494,-1.02148,0.23828,-19.28711,20.01953,82.03125,1.0509119622499308,86.61351032105499,walk
2026-05-24T22:06:20.091,17858,0.05176,-1.05322,0.2395,-21.54541,32.95898,79.3457,1.0813471764424227,88.57899956083553,walk
2026-05-24T22:06:20.091,17878,0.01929,-1.01196,0.19434,-21.85059,41.56494,75.62256,1.0306324181297617,89.01608900364754,walk
2026-05-24T22:06:20.572,17946,-0.04272,-0.93286,0.09741,-16.78467,-14.16016,75.01221,0.9389044073280305,78.16052026003025,walk
2026-05-24T22:06:20.572,17966,-0.05811,-0.92603,0.13599,-14.46533,-26.24512,73.36426,0.9377641564380673,79.2487649188989,walk
2026-05-24T22:06:20.572,17986,-0.08179,-0.9187,0.15063,-12.57324,-24.10889,68.78662,0.9345526689277603,73.96569496837098,walk
2026-05-24T22:06:20.572,18006,-0.12744,-0.94556,0.1355,-11.16943,-20.99609,62.07275,0.9636829962181547,66.47268803332312,walk
2026-05-24T22:06:20.572,18026,-0.16919,-0.95898,0.12891,-8.11768,-26.9165,57.31201,0.9822859484895425,63.83620595768909,walk
2026-05-24T22:06:20.572,18046,-0.17993,-0.95312,0.14429,-6.28662,-35.82764,52.55127,0.9806284430914698,63.91226296734376,walk
2026-05-24T22:06:20.572,18066,-0.18457,-0.92114,0.20215,-5.85937,-25.14648,44.00635,0.9609524478349591,51.02192189157323,walk
2026-05-24T22:06:20.572,18086,-0.20703,-0.91089,0.20679,-7.20215,-2.38037,33.44727,0.956736179466419,34.29660327805511,walk
2026-05-24T22:06:20.572,18106,-0.20483,-0.91162,0.17944,-6.71387,6.28662,26.36719,0.9514226541868761,27.92537107895614,walk
2026-05-24T22:06:20.572,18126,-0.20557,-0.94897,0.16016,-6.40869,4.21143,18.61572,0.9841007628286851,20.133367360662746,walk
2026-05-24T22:06:20.572,18146,-0.19482,-0.97363,0.15845,-6.34766,9.33838,10.98633,1.0054932181770297,15.754287523366457,walk
2026-05-24T22:06:20.572,18166,-0.19702,-0.96045,0.15723,-6.10352,18.24951,2.86865,0.9929765132167024,19.455763270892252,walk
2026-05-24T22:06:20.572,18186,-0.19458,-0.97168,0.13184,-5.43213,19.89746,-4.3335,0.9997025479611423,21.075961971841284,walk
2026-05-24T22:06:20.572,18206,-0.17456,-0.98706,0.11279,-4.45557,16.60156,-10.49805,1.0087022461063522,20.141324491229465,walk
2026-05-24T22:06:20.572,18226,-0.16626,-0.99585,0.10474,-3.2959,13.30566,-15.86914,1.0150517610939849,20.969815191965807,walk
2026-05-24T22:06:20.572,18246,-0.1626,-1.01587,0.08862,-2.01416,2.56348,-19.77539,1.0326103434016145,20.042313236453023,walk
2026-05-24T22:06:20.572,18266,-0.16846,-1.02759,0.11255,-0.79346,-8.17871,-23.4375,1.0473717020236892,24.836209096512697,walk
2026-05-24T22:06:20.572,18286,-0.17578,-0.99414,0.15161,-0.79346,-6.71387,-28.56445,1.0208812566111694,29.35359318637158,walk
2026-05-24T22:06:20.572,18306,-0.17188,-0.94604,0.14624,-1.70898,1.70898,-32.40967,0.972584471190035,32.499660533453266,walk
2026-05-24T22:06:20.572,18326,-0.16724,-0.9353,0.1123,-2.0752,-1.15967,-32.2876,0.9567479279308632,32.374996576199045,walk
2026-05-24T22:06:21.047,18429,-0.1355,-0.81958,0.40454,7.44629,8.05664,-42.17529,0.9239719898351897,43.578799541036005,walk
2026-05-24T22:06:21.047,18449,-0.45264,-0.93994,0.22729,7.20215,23.80371,-47.24121,1.0677223034572239,53.387446995063364,walk
2026-05-24T22:06:21.047,18469,-0.02612,-0.84888,0.24854,9.0332,20.50781,-40.77148,0.8849020513028547,46.52399977029597,walk
2026-05-24T22:06:21.047,18489,-0.0293,-0.85937,0.03735,7.8125,20.62988,-37.90283,0.860680143491181,43.85489285214707,walk
2026-05-24T22:06:21.047,18509,-0.16333,-0.95801,0.04004,7.56836,24.23096,-36.43799,0.9726577253073149,44.408857346832285,walk
2026-05-24T22:06:21.047,18529,-0.2146,-1.02979,0.06641,8.30078,21.11816,-37.59766,1.05400706458733,43.91427635598246,walk
2026-05-24T22:06:21.047,18549,-0.20337,-1.03247,0.02368,9.82666,-0.54932,-37.23145,1.0525751280550002,38.51033456515926,walk
2026-05-24T22:06:21.047,18569,-0.16162,-0.96021,0.00562,11.1084,-13.30566,-36.25488,0.9737329474244979,40.185239359869435,walk
2026-05-24T22:06:21.047,18589,-0.15747,-0.93066,0.05127,11.2915,-12.87842,-36.07178,0.945279561505484,39.93150368211545,walk
2026-05-24T22:06:21.047,18609,-0.20117,-0.98755,0.12402,11.53564,-7.69043,-38.20801,1.0154335683834763,40.64561147226845,walk
2026-05-24T22:06:21.047,18629,-0.21069,-0.98193,0.16553,11.1084,-1.77002,-41.44287,1.0178295446193335,42.942298438687466,walk
2026-05-24T22:06:21.047,18649,-0.16284,-0.96484,0.12451,11.1084,2.50244,-43.45703,0.9863750966544117,44.92407164243353,walk
2026-05-24T22:06:21.047,18669,-0.11865,-0.94849,0.08447,11.77979,3.96729,-44.31152,0.959607359027639,46.02188226375145,walk
2026-05-24T22:06:21.047,18689,-0.09351,-0.97021,0.06567,12.51221,2.99072,-44.86084,0.9769156120668765,46.66899153300937,walk
2026-05-24T22:06:21.047,18709,-0.06299,-0.98608,0.07251,13.48877,-1.28174,-45.10498,0.990746792374318,47.09616751223925,walk
2026-05-24T22:06:21.047,18729,-0.00732,-0.9668,0.09741,14.28223,-8.23975,-44.12842,0.9717224554881914,47.10831163958012,walk
2026-05-24T22:06:21.047,18749,0.0332,-0.96655,0.10571,14.64844,-11.90186,-43.02979,0.9728801296151547,46.98716732616789,walk
2026-05-24T22:06:21.047,18769,0.09448,-0.96729,0.12744,14.95361,-15.56396,-41.80908,0.9802129197781471,47.05152997895074,walk
2026-05-24T22:06:21.047,18789,0.10132,-0.97607,0.14478,14.70947,-16.35742,-40.40527,0.9919373144004615,46.005646832863896,walk
2026-05-24T22:06:21.047,18809,0.10474,-0.96484,0.13647,14.5874,-18.55469,-39.00146,0.9800565055648578,45.587088543662226,walk
2026-05-24T22:06:21.496,18898,0.08716,-0.95947,0.16309,13.79395,-15.68604,-37.96387,0.9771273686679747,43.33105506286456,walk
2026-05-24T22:06:21.496,18918,0.08887,-0.9646,0.17432,13.61084,-17.76123,-38.08594,0.9842451418726942,44.17301305437631,walk
2026-05-24T22:06:21.496,18938,0.08789,-0.96069,0.17822,13.30566,-16.29639,-39.00146,0.9810261447076729,44.31395713767052,walk
2026-05-24T22:06:21.496,18958,0.06396,-0.95923,0.18823,13.18359,-13.3667,-40.34424,0.9796140093934959,44.49869004089559,walk
2026-05-24T22:06:21.496,18978,0.06812,-0.94922,0.19092,12.93945,-9.15527,-42.17529,0.9706231963022519,45.05555927584852,walk
2026-05-24T22:06:21.496,18998,0.11011,-0.94458,0.17554,13.24463,-12.69531,-42.72461,0.9670418192094901,46.49713345449481,walk
2026-05-24T22:06:21.496,19018,0.13574,-0.93286,0.20581,13.00049,-11.65771,-43.82324,0.9648890523267429,47.17405332152199,walk
2026-05-24T22:06:21.496,19038,0.15137,-0.91846,0.26855,11.47461,4.57764,-46.69189,0.9688140951699661,48.29859267508527,walk
2026-05-24T22:06:21.496,19058,0.18018,-0.91626,0.30078,9.46045,28.74756,-50.47607,0.9810534279028844,58.85368266133395,walk
2026-05-24T22:06:21.496,19078,0.24585,-0.90332,0.25464,9.0332,43.70117,-52.91748,0.9701911020515495,69.2217498417896,walk
2026-05-24T22:06:21.496,19098,0.28931,-0.91797,0.19287,9.82666,39.79492,-51.08643,0.9816150130779377,65.4982613105638,walk
2026-05-24T22:06:21.496,19118,0.34863,-0.91089,0.18311,11.35254,28.01514,-48.15674,0.9923672410453702,56.85771575695597,walk
2026-05-24T22:06:21.496,19138,0.38159,-0.88672,0.20068,12.63428,19.40918,-45.28809,0.9859795884804107,50.86602397709988,walk
2026-05-24T22:06:21.496,19158,0.37793,-0.88867,0.22217,13.30566,17.15088,-43.51807,0.990921269677869,48.63142697201986,walk
2026-05-24T22:06:21.496,19178,0.37012,-0.89966,0.2041,14.28223,13.79395,-41.87012,0.9939988631784243,46.33963853106539,walk
2026-05-24T22:06:21.497,19198,0.35571,-0.90112,0.1814,15.625,2.19727,-39.36768,0.9856230610634068,42.4120601838121,walk
2026-05-24T22:06:21.497,19218,0.35669,-0.89746,0.21631,16.72363,-10.68115,-36.92627,0.9896727862278523,41.92035522049283,walk
2026-05-24T22:06:21.497,19238,0.37061,-0.89038,0.27808,16.72363,-18.18848,-35.27832,1.0037214767553795,43.0704128969029,walk
2026-05-24T22:06:21.497,19258,0.38184,-0.87256,0.36255,15.13672,-13.48877,-35.40039,1.0191198367709267,40.795279391412436,walk
2026-05-24T22:06:21.497,19278,0.40625,-0.8894,0.40112,12.57324,-0.54932,-35.70557,1.0568673885119173,37.858629737285796,walk
2026-05-24T22:06:22.528,19356,0.32031,-1.31519,0.29541,0.24414,19.83643,-10.43701,1.3854928005226155,22.41594827850475,walk
2026-05-24T22:06:22.528,19376,0.23413,-1.37427,0.2146,-0.79346,18.85986,-2.44141,1.4104921303573446,19.033769484243003,walk
2026-05-24T22:06:22.528,19396,0.22388,-1.33716,0.24414,-2.01416,15.13672,3.90625,1.3775788397039206,15.761850206320958,walk
2026-05-24T22:06:22.528,19416,0.28369,-1.24243,0.29492,-4.45557,10.68115,12.57324,1.3080864372815735,17.088751664325862,walk
2026-05-24T22:06:22.528,19436,0.29736,-1.16162,0.31348,-7.99561,5.79834,22.70508,1.2393763368727033,24.76027430853907,walk
2026-05-24T22:06:22.528,19456,0.27197,-1.09106,0.32349,-11.84082,7.87354,31.67725,1.1700535819354598,34.72241088931614,walk
2026-05-24T22:06:22.528,19476,0.23682,-1.0293,0.32788,-16.54053,15.50293,39.67285,1.105914778271816,45.69316139629977,walk
2026-05-24T22:06:22.528,19496,0.21533,-0.98804,0.31323,-20.87402,23.01025,46.93604,1.0586326479945722,56.28666064801233,walk
2026-05-24T22:06:22.528,19516,0.21606,-0.96606,0.28076,-25.02441,27.89307,54.32129,1.0289703711963722,65.99277988641713,walk
2026-05-24T22:06:22.528,19536,0.20483,-0.94995,0.24219,-28.38135,26.18408,62.07275,1.0015070281830278,73.10357970599935,walk
2026-05-24T22:06:22.528,19556,0.17505,-0.94092,0.20581,-30.39551,20.69092,69.2749,0.9789436679400914,78.42839389287849,walk
2026-05-24T22:06:22.528,19576,0.14746,-0.92651,0.19141,-32.16553,18.24951,74.95117,0.9574983132100024,83.57836932956936,walk
2026-05-24T22:06:22.528,19596,0.12109,-0.90479,0.18042,-33.14209,15.25879,79.52881,0.9305155069100138,87.49891668956992,walk
2026-05-24T22:06:22.528,19616,0.09985,-0.88623,0.17725,-33.99658,13.12256,83.06885,0.9092805936013372,90.71054444204654,walk
2026-05-24T22:06:22.528,19636,0.0769,-0.875,0.16968,-34.729,14.28223,85.32715,0.8946115986281421,93.22450354866686,walk
2026-05-24T22:06:22.528,19656,0.06567,-0.87012,0.14209,-34.66797,14.77051,86.91406,0.8840876265393606,94.73167334774891,walk
2026-05-24T22:06:22.528,19676,0.05322,-0.85645,0.11646,-34.05762,12.57324,88.13477,0.8659687653143155,95.31917712147384,walk
2026-05-24T22:06:22.528,19696,0.04175,-0.85645,0.10205,-32.40967,6.5918,89.17236,0.8635183075650453,95.10808758837757,walk
2026-05-24T22:06:22.528,19716,0.02856,-0.86084,0.09058,-29.35791,-0.67139,89.29443,0.8660634593377092,93.99911102305755,walk
2026-05-24T22:06:22.528,19736,0.02124,-0.85742,0.08154,-27.83203,-6.71387,87.46338,0.8615503267946685,92.03010803711034,walk
2026-05-24T22:06:23.484,20464,-0.11035,-0.9646,0.11548,9.52148,-7.14111,-48.03467,0.9777350934174348,49.48720597721597,walk
2026-05-24T22:06:23.484,20484,-0.11719,-0.97339,0.12866,9.39941,-2.62451,-50.1709,0.988825052170504,51.11121371967408,walk
2026-05-24T22:06:23.484,20504,-0.09277,-0.97021,0.15747,9.33838,-1.28174,-52.36816,0.98727428706515,53.209701937124215,walk
2026-05-24T22:06:23.484,20524,-0.0415,-0.95972,0.16357,8.97217,2.92969,-54.07715,0.9744433658761293,54.894636077922044,walk
2026-05-24T22:06:23.484,20544,0.03711,-0.9668,0.09546,9.09424,10.62012,-54.99268,0.9722098557924621,56.74228585080442,walk
2026-05-24T22:06:23.484,20564,0.09814,-0.96069,0.07153,10.0708,17.8833,-55.96924,0.96833531206912,59.613666702423195,walk
2026-05-24T22:06:23.484,20584,0.13623,-0.95703,0.02832,11.77979,14.89258,-54.44336,0.9670920619051736,57.65962052936266,walk
2026-05-24T22:06:23.484,20604,0.15576,-0.96729,0.04858,13.48877,22.33887,-53.77197,0.9809541977584887,59.76953058767235,walk
2026-05-24T22:06:23.484,20624,0.22095,-0.95728,-0.01025,16.23535,17.45605,-51.63574,0.9825013808641695,56.8731036305616,walk
2026-05-24T22:06:23.484,20644,0.24365,-0.95093,0.00293,19.104,10.62012,-49.25537,0.9816525720946286,53.88730127452385,walk
2026-05-24T22:06:23.484,20664,0.23828,-0.94604,0.04468,21.1792,6.95801,-46.81396,0.9766091041967611,51.85093313221759,walk
2026-05-24T22:06:23.484,20684,0.23706,-0.94727,0.0625,22.94922,2.86865,-44.67773,0.9784805294434835,50.30899928823669,walk
2026-05-24T22:06:23.484,20704,0.24414,-0.94702,0.10669,24.29199,5.92041,-44.06738,0.9837855335895115,50.6664189852865,walk
2026-05-24T22:06:23.484,20724,0.26245,-0.9353,0.14624,24.6582,12.45117,-43.64014,0.9823707192806593,51.64804237169595,walk
2026-05-24T22:06:23.484,20744,0.26587,-0.91479,0.16211,25.63477,15.50293,-43.21289,0.9663370287327294,52.58170911723867,walk
2026-05-24T22:06:23.484,20764,0.23999,-0.91895,0.16992,26.42822,13.18359,-42.17529,0.9648508221481702,51.4879883491344,walk
2026-05-24T22:06:23.484,20784,0.21753,-0.9165,0.18555,27.16064,10.43701,-41.62598,0.9600626820161275,50.78733851965566,walk
2026-05-24T22:06:23.485,20804,0.20825,-0.92065,0.21826,27.16064,7.8125,-41.25977,0.9688146946656001,50.01104020026479,walk
2026-05-24T22:06:23.485,20824,0.2395,-0.90186,0.27808,26.9165,7.38525,-41.19873,0.9736735572048776,49.76319165231868,walk
2026-05-24T22:06:23.485,20844,0.30566,-0.90796,0.33496,25.63477,11.71875,-41.07666,1.0148978267786368,49.81729148870902,walk
2026-05-24T22:06:23.961,21339,0.08862,-1.04492,0.19849,-27.64893,11.1084,59.08203,1.0672907714863837,66.17058371833969,walk
2026-05-24T22:06:23.961,21359,0.06982,-1.03809,0.20923,-28.9917,4.88281,64.08691,1.0612647517938207,70.50881175948295,walk
2026-05-24T22:06:23.961,21379,0.06812,-1.03638,0.22998,-30.82275,7.50732,67.0166,1.063773772566329,74.14598065104339,walk
2026-05-24T22:06:23.961,21399,0.06055,-1.06372,0.2019,-32.34863,10.80322,68.84766,1.0844031311740112,76.83191858024178,walk
2026-05-24T22:06:23.961,21419,0.06177,-1.08252,0.18579,-33.08105,9.82666,70.43457,1.1000831820367039,78.43435323213292,walk
2026-05-24T22:06:23.961,21439,0.04785,-1.05347,0.18262,-33.5083,9.8877,71.41113,1.070251712355556,79.49919665038698,walk
2026-05-24T22:06:23.961,21459,0.05371,-0.98486,0.18726,-34.11865,16.96777,70.86182,1.0039423744916836,80.45734913796129,walk
2026-05-24T22:06:23.961,21479,0.05908,-0.91846,0.14722,-34.36279,23.4375,69.82422,0.932058445806914,81.27446980105437,walk
2026-05-24T22:06:23.961,21499,0.06226,-0.88403,0.09692,-33.44727,19.9585,69.88525,0.8915036931499499,80.00631075274875,walk
2026-05-24T22:06:23.961,21519,0.06372,-0.86963,0.04175,-30.15137,5.92041,69.76318,0.8729602727501408,76.23029352663809,walk
2026-05-24T22:06:23.961,21539,0.03833,-0.87109,-0.02417,-28.19824,-10.80322,68.60352,0.8722678292244878,74.95527505023513,walk
2026-05-24T22:06:23.961,21559,-0.03589,-0.86914,0.0625,-25.26855,-21.1792,70.37354,0.8721230886176562,77.71417672390348,walk
2026-05-24T22:06:23.961,21579,0.05664,-0.89795,0.16724,-23.55957,-20.75195,69.03076,0.9151456221279759,75.83496946373091,walk
2026-05-24T22:06:23.961,21599,0.02637,-0.91504,0.13403,-22.09473,-15.50293,66.28418,0.9251797768001633,71.56892098271567,walk
2026-05-24T22:06:23.961,21619,0.01294,-0.9209,0.08032,-20.26367,-17.15088,64.5752,0.9244866445763292,69.81923418144386,walk
2026-05-24T22:06:23.961,21639,-0.01221,-0.92041,0.07715,-16.78467,-27.03857,62.68311,0.9237184499077628,70.29922968230804,walk
2026-05-24T22:06:23.961,21659,0.0022,-0.92651,0.08984,-13.91602,-31.55518,60.11963,0.9308581232926959,69.30912572533072,walk
2026-05-24T22:06:23.961,21679,-0.01099,-0.92554,0.11108,-10.74219,-34.24072,57.55615,0.9322466616191233,67.82722134170764,walk
2026-05-24T22:06:23.961,21699,-0.03564,-0.89575,0.13428,-8.72803,-23.31543,52.36816,0.9064598118504759,57.98458386115572,walk
2026-05-24T22:06:23.961,21719,-0.03906,-0.86035,0.12329,-7.50732,-14.77051,47.30225,0.8700162241015968,50.12016235313888,walk
2026-05-24T22:06:24.786,21821,-0.15796,-0.95483,0.18701,-0.85449,-11.35254,19.65332,0.9857101148917972,22.71262434493425,walk
2026-05-24T22:06:24.786,21841,-0.1687,-0.97607,0.16992,-0.85449,-3.41797,10.0708,1.0050100204973083,10.669286982783808,walk
2026-05-24T22:06:24.786,21861,-0.19385,-1.0061,0.16211,-0.61035,6.5918,1.64795,1.0373498371330667,6.82203001789057,walk
2026-05-24T22:06:24.786,21881,-0.17407,-0.97632,0.15991,-0.42725,15.68604,-7.20215,1.004525915743342,17.265727846418756,walk
2026-05-24T22:06:24.786,21901,-0.16235,-0.97827,0.14673,-0.18311,18.31055,-14.52637,1.0024467109527568,23.373600406259623,walk
2026-05-24T22:06:24.786,21921,-0.16357,-1.03052,0.09692,1.09863,14.22119,-20.32471,1.0479122585884757,24.83028532814514,walk
2026-05-24T22:06:24.786,21941,-0.17163,-1.07202,0.07153,3.72314,6.65283,-25.63477,1.0880258628359898,26.744407853257847,walk
2026-05-24T22:06:24.786,21961,-0.16772,-1.08203,0.07178,6.53076,-1.70898,-30.2124,1.0973018216060704,30.957398995684375,walk
2026-05-24T22:06:24.786,21981,-0.15674,-1.05396,0.08179,8.36182,-7.69043,-34.5459,1.0686855072003176,36.36594497751021,walk
2026-05-24T22:06:24.786,22001,-0.16211,-1.0354,0.10889,10.55908,-10.55908,-37.96387,1.053655467503491,40.79514390549076,walk
2026-05-24T22:06:24.786,22021,-0.14453,-1.02246,0.13794,11.2915,-11.35254,-39.30664,1.0417969169180719,42.44278601589674,walk
2026-05-24T22:06:24.786,22041,-0.11304,-1.01367,0.15649,9.0332,-6.83594,-41.38184,1.0318885747017457,42.90437576412457,walk
2026-05-24T22:06:24.786,22061,-0.10376,-1.02881,0.2229,10.00977,0.85449,-46.50879,1.057780962061617,47.58143751377315,walk
2026-05-24T22:06:24.786,22081,-0.10303,-1.07153,0.22339,10.49805,14.77051,-51.69678,1.0994065735204608,54.78078204836984,walk
2026-05-24T22:06:24.786,22101,0.09595,-2.22754,0.27002,10.49805,30.27344,-57.31201,2.2458966259603312,65.66092227098399,walk
2026-05-24T22:06:24.786,22121,-0.52148,-1.0481,0.2085,13.97705,26.7334,-35.15625,1.1890867295533998,46.324880100492436,walk
2026-05-24T22:06:24.786,22141,0.16357,-0.85327,0.44678,16.23535,51.69678,-53.58887,0.9769530214907982,76.20964925695301,walk
2026-05-24T22:06:24.786,22161,-0.07471,-0.80933,0.10645,14.5874,54.26025,-45.95947,0.819712288245089,72.58952990275802,walk
2026-05-24T22:06:24.786,22181,-0.04517,-1.00488,0.00977,15.44189,35.88867,-41.38184,1.0059421435649267,56.91138096133848,walk
2026-05-24T22:06:24.786,22201,-0.09595,-1.00854,0.05835,17.02881,4.45557,-37.17041,1.0147729088815882,41.1275072622825,walk
2026-05-24T22:06:25.319,22631,0.12988,-0.93481,0.12085,15.19775,7.56836,-50.72021,0.9514952826998145,53.48636630578114,walk
2026-05-24T22:06:25.319,22651,0.1582,-0.92651,0.12598,17.33398,-4.21143,-49.80469,0.9483243013336735,52.9028368925656,walk
2026-05-24T22:06:25.319,22671,0.16772,-0.91821,0.15259,18.37158,-6.34766,-49.68262,0.9457924246894769,53.34951236174891,walk
2026-05-24T22:06:25.319,22691,0.19995,-0.90308,0.19604,18.67676,-3.41797,-50.23193,0.9454973138512874,53.70056493691104,walk
2026-05-24T22:06:25.319,22711,0.26123,-0.89941,0.19775,19.04297,1.0376,-50.84229,0.9572275191927989,54.30147118287864,walk
2026-05-24T22:06:25.319,22731,0.3064,-0.91382,0.2124,20.1416,-7.87354,-49.19434,0.9869456481488734,53.737880221750466,walk
2026-05-24T22:06:25.319,22751,0.33789,-0.88135,0.25928,19.89746,-5.67627,-48.58398,0.9788634189712065,52.8065532695034,walk
2026-05-24T22:06:25.319,22771,0.37891,-0.8728,0.26831,19.65332,-0.67139,-47.85156,0.9886065365958289,51.73466483884959,walk
2026-05-24T22:06:25.319,22791,0.48047,-0.88916,0.19312,20.32471,-15.13672,-43.15186,1.0289568800003235,50.0429530543722,walk
2026-05-24T22:06:25.320,22811,0.4668,-0.89722,0.23755,22.3999,-45.22705,-36.86523,1.03891095426894,62.50029403663154,walk
2026-05-24T22:06:25.320,22831,0.4707,-0.94385,0.31104,21.78955,-58.47168,-32.2876,1.0996168396764392,70.25817365250039,walk
2026-05-24T22:06:25.320,22851,0.39136,-1.09888,0.34399,18.9209,-46.99707,-26.30615,1.2161533719477986,57.085362162444056,walk
2026-05-24T22:06:25.320,22871,0.34009,-1.26929,0.36206,13.91602,-32.95898,-13.30566,1.3630281566424078,38.17054575607218,walk
2026-05-24T22:06:25.320,22891,0.31714,-1.24829,0.38184,8.48389,-18.43262,-4.02832,1.343356798955512,20.687320551944374,walk
2026-05-24T22:06:25.320,22911,0.25708,-1.22046,0.32715,3.23486,-7.44629,6.7749,1.2894339302577702,10.57406374076211,walk
2026-05-24T22:06:25.320,22931,0.24536,-1.14282,0.34106,-1.52588,1.0376,16.90674,1.2176046179281679,17.00713911750004,walk
2026-05-24T22:06:25.320,22951,0.23218,-1.12964,0.2981,-5.85937,0.18311,26.85547,1.1911581305603383,27.48785213489588,walk
2026-05-24T22:06:25.320,22971,0.20996,-1.15967,0.29492,-9.58252,0.30518,35.15625,1.2148644026803979,36.44008422664937,walk
2026-05-24T22:06:25.320,22991,0.20972,-1.16455,0.27368,-12.39014,8.91113,39.24561,1.2145204499307536,42.10868926205849,walk
2026-05-24T22:06:25.320,23011,0.19653,-1.14526,0.22437,-15.01465,12.26807,44.6167,1.183463732186162,48.647663613347355,walk
2026-05-24T22:06:25.775,23179,0.07202,-0.85913,0.17993,-28.13721,17.63916,68.60352,0.8807190483917103,76.21866902852673,walk
2026-05-24T22:06:25.775,23199,0.07935,-0.87744,0.12915,-29.11377,18.55469,69.15283,0.8904364652236565,77.29166851361083,walk
2026-05-24T22:06:25.775,23219,0.03296,-0.88257,0.07129,-28.68652,14.22119,70.37354,0.8860578031934485,77.3149002900353,walk
2026-05-24T22:06:25.775,23239,0.08813,-0.9187,0.16089,-28.93066,16.23535,70.3125,0.9368362605066052,77.74585091121004,walk
2026-05-24T22:06:25.775,23259,0.05981,-0.8938,0.16602,-28.86963,18.43262,69.88525,0.9110534103443113,77.82779184818106,walk
2026-05-24T22:06:25.775,23279,0.03125,-0.88403,0.1333,-28.19824,24.35303,67.81006,0.8945694458229613,77.371926733681,walk
2026-05-24T22:06:25.775,23299,0.01514,-0.89136,0.08887,-26.9165,25.75684,64.20898,0.8959072195824744,74.2341288874329,walk
2026-05-24T22:06:25.775,23319,-0.02563,-0.8894,0.05396,-25.75684,19.59229,61.34033,0.891403914339622,69.35350545386008,walk
2026-05-24T22:06:25.775,23339,-0.07422,-0.92114,0.03003,-25.02441,25.45166,62.68311,0.9246130590144181,72.13307404981296,walk
2026-05-24T22:06:25.775,23359,0.01489,-0.91016,0.0791,-20.62988,7.69043,60.72998,0.9137120704576469,64.59771770890748,walk
2026-05-24T22:06:25.775,23379,-0.05884,-0.91382,0.02393,-18.85986,-6.22559,60.30273,0.9160249903250456,63.48914502118138,walk
2026-05-24T22:06:25.775,23399,-0.0647,-0.88574,0.06738,-14.70947,-23.68164,58.65479,0.8906522901783838,64.94284387609308,walk
2026-05-24T22:06:25.775,23419,-0.03955,-0.91919,0.24121,-16.54053,11.77979,51.2085,0.9511344398664155,55.08777593418526,walk
2026-05-24T22:06:25.775,23439,-0.11475,-0.91357,-0.02734,-12.26807,-9.39941,50.47607,0.9211542666676412,52.78909065818334,walk
2026-05-24T22:06:25.775,23459,-0.06836,-0.91577,0.1145,-10.49805,-9.94873,47.24121,0.9254285669353416,49.405649521886666,walk
2026-05-24T22:06:25.775,23479,-0.07983,-0.92773,0.11816,-9.33838,5.18799,41.44287,0.9386253605139806,42.79757066822135,walk
2026-05-24T22:06:25.775,23499,-0.08203,-0.98413,0.09766,-8.11768,5.7373,37.47559,0.9923599414526968,38.7715512421221,walk
2026-05-24T22:06:25.775,23519,-0.07544,-0.99805,0.12524,-6.5918,-4.15039,34.5459,1.0087021630293056,35.41322875991541,walk
2026-05-24T22:06:25.775,23539,-0.07886,-0.98462,0.15063,-6.04248,-5.79834,30.63965,0.9991920940940237,31.76350836145938,walk
2026-05-24T22:06:25.775,23559,-0.10498,-1.01563,0.21948,-5.5542,-0.54932,24.41406,1.0443641930380418,25.043905761402314,walk
2026-05-24T22:06:26.237,23630,-0.13037,-1.05615,0.10352,-1.52588,1.2207,3.11279,1.069189202059205,3.6753067693051147,walk
2026-05-24T22:06:26.237,23650,-0.14624,-1.04761,0.13062,0.24414,19.28711,-6.89697,1.0658022490593646,20.48463843158087,walk
2026-05-24T22:06:26.237,23670,-0.104,-1.09399,0.11938,2.56348,30.33447,-14.77051,1.105387581122567,33.836658605001176,walk
2026-05-24T22:06:26.237,23690,-0.07568,-1.10767,0.07617,5.5542,13.91602,-18.06641,1.1128621478871494,23.471257328240853,walk
2026-05-24T22:06:26.237,23710,-0.09668,-1.08545,0.1084,8.30078,-16.8457,-19.22607,1.0951252370847822,26.87605485824324,walk
2026-05-24T22:06:26.237,23730,-0.18384,-1.80518,0.12964,13.06152,-30.63965,-27.09961,1.8191422450154908,42.93926313975357,walk
2026-05-24T22:06:26.237,23750,-0.13525,-0.8728,0.31177,32.34863,-62.01172,-48.03467,0.9366284938010374,84.8481985798414,walk
2026-05-24T22:06:26.237,23770,-0.37842,-0.87842,0.34326,18.31055,53.40576,-56.51855,1.0161942828022603,79.88615610093278,walk
2026-05-24T22:06:26.237,23790,-0.11963,-0.9563,0.22314,15.625,24.4751,-46.20361,0.9892484452856117,54.570548119311574,walk
2026-05-24T22:06:26.237,23810,0.06201,-0.86133,0.28809,17.57813,3.66211,-44.92188,0.910346339092985,48.37744315983846,walk
2026-05-24T22:06:26.237,23830,-0.11401,-0.89771,0.1687,16.17432,-4.39453,-41.1377,0.920511387327718,44.42106350227671,walk
2026-05-24T22:06:26.237,23850,-0.09741,-0.92627,0.19531,15.99121,2.2583,-38.69629,0.9516358637104847,41.93115280931589,walk
2026-05-24T22:06:26.237,23870,-0.10425,-0.97388,0.15381,15.56396,10.74219,-40.52734,0.9914473425250582,44.722441618870725,walk
2026-05-24T22:06:26.237,23890,-0.2312,-0.95581,0.09473,13.79395,0.24414,-42.60254,0.987927107128861,44.78067747805631,walk
2026-05-24T22:06:26.237,23910,-0.15942,-0.94995,0.16284,13.06152,2.80762,-44.43359,0.9769015326531123,46.39859863253308,walk
2026-05-24T22:06:26.237,23930,-0.14819,-0.94556,0.18042,12.3291,9.21631,-46.20361,0.973958605947912,48.700314720319824,walk
2026-05-24T22:06:26.237,23950,-0.14502,-0.96387,0.16577,12.02393,12.75635,-48.21777,0.9887142510351512,51.30548412928486,walk
2026-05-24T22:06:26.237,23970,-0.14502,-0.9541,0.14331,11.90186,12.51221,-49.98779,0.9756410028796453,52.88656558737578,walk
2026-05-24T22:06:26.237,23990,-0.10254,-0.96045,0.14819,12.26807,11.04736,-51.26953,0.9772097677571586,53.86199412308646,walk
2026-05-24T22:06:26.237,24010,-0.08618,-0.9707,0.12183,12.69531,8.05664,-52.00195,0.9821038800961943,54.132089816376016,walk
2026-05-24T22:06:27.137,24082,0.00391,-0.94556,0.16235,13.24463,9.46045,-55.78613,0.9594042548373443,58.1120696449223,walk
2026-05-24T22:06:27.137,24102,0.04712,-0.93433,0.15161,13.48877,13.48877,-56.57959,0.9477227629428344,59.70882545146823,walk
2026-05-24T22:06:27.137,24122,0.13208,-0.9314,0.13574,14.28223,14.5874,-56.51855,0.9504611691173922,60.09260209572722,walk
2026-05-24T22:06:27.137,24142,0.18164,-0.93945,0.11597,15.50293,7.87354,-54.6875,0.9638508354512123,57.3851559810244,walk
2026-05-24T22:06:27.137,24162,0.20337,-0.94116,0.09399,16.90674,-3.90625,-51.51367,0.9674583311957161,54.35765671328189,walk
2026-05-24T22:06:27.138,24182,0.23218,-0.92773,0.10229,18.55469,-12.69531,-49.19434,0.9617971456601438,54.08817343031469,walk
2026-05-24T22:06:27.138,24202,0.23364,-0.92871,0.13696,19.22607,-14.5874,-47.79053,0.9673923481711028,53.538479284396935,walk
2026-05-24T22:06:27.138,24222,0.25977,-0.92725,0.15161,19.89746,-13.42773,-46.93604,0.9748120883021507,52.71816288800379,walk
2026-05-24T22:06:27.138,24242,0.28027,-0.92236,0.15283,20.50781,-14.64844,-45.71533,0.9760411115316813,52.201900946599636,walk
2026-05-24T22:06:27.138,24262,0.28394,-0.92358,0.17139,20.87402,-11.04736,-45.10498,0.9813238365086215,50.913928297965775,walk
2026-05-24T22:06:27.138,24282,0.31348,-0.92676,0.19043,20.81299,-0.73242,-45.34912,0.996703262209972,49.90250170653671,walk
2026-05-24T22:06:27.138,24302,0.34766,-0.91284,0.16577,21.48438,2.56348,-44.06738,0.9907694152021448,49.09260630440392,walk
2026-05-24T22:06:27.138,24322,0.37012,-0.9165,0.15015,22.76611,-6.83594,-40.77148,0.9997530129486982,47.194696964872016,walk
2026-05-24T22:06:27.138,24342,0.38232,-0.89551,0.17358,24.04785,-19.53125,-37.53662,0.9890585214738307,48.6699769592035,walk
2026-05-24T22:06:27.138,24362,0.37695,-0.89185,0.23218,24.23096,-25.20752,-35.27832,0.9956883435091525,49.670095118636524,walk
2026-05-24T22:06:27.138,24382,0.39746,-0.88623,0.29736,23.25439,-19.65332,-34.85107,1.0157760747822326,46.27760496654294,walk
2026-05-24T22:06:27.138,24402,0.42554,-0.89819,0.32178,21.85059,-8.48389,-34.48486,1.044687482503739,41.69688528055543,walk
2026-05-24T22:06:27.138,24422,0.44873,-0.91626,0.27466,21.05713,-11.23047,-31.92139,1.0565647713699335,39.85600732373854,walk
2026-05-24T22:06:27.138,24442,0.43774,-0.98584,0.25781,21.72852,-30.82275,-25.39063,1.1090368836517568,45.46267249898317,walk
2026-05-24T22:06:27.138,24462,0.39331,-1.01807,0.2688,21.05713,-46.44775,-18.79883,1.1240163348457175,54.35248120618137,walk
2026-05-24T22:06:27.964,24986,0.0957,-0.93848,0.22949,-23.07129,24.16992,62.98828,0.9708598562614482,71.30212389844289,walk
2026-05-24T22:06:27.964,25006,0.0293,-0.96899,0.20044,-24.90234,28.01514,62.92725,0.989937525149946,73.24488650586947,walk
2026-05-24T22:06:27.964,25026,0.04736,-0.91821,0.17456,-23.80371,26.55029,61.95068,0.9358545652503918,71.48021587341913,walk
2026-05-24T22:06:27.965,25046,0.01538,-0.89453,0.1272,-23.25439,24.41406,60.36377,0.9036593967308701,69.14186653951859,walk
2026-05-24T22:06:27.965,25066,0.01758,-0.89404,0.10938,-23.01025,14.64844,58.71582,0.9008776622827318,64.74253561429688,walk
2026-05-24T22:06:27.965,25086,0.01709,-0.90308,0.15771,-22.2168,5.00488,57.37305,0.9169067556736618,61.72764285437198,walk
2026-05-24T22:06:27.965,25106,0.01636,-0.91162,0.20068,-22.58301,4.45557,54.38232,0.9335904543213797,59.053206291169325,walk
2026-05-24T22:06:27.965,25126,0.00732,-0.93726,0.19238,-22.58301,8.17871,51.02539,0.9568280694043209,56.395691879578,walk
2026-05-24T22:06:27.965,25146,-0.04053,-0.95142,0.16602,-21.48438,6.71387,49.01123,0.9666464388285926,53.932877732179286,walk
2026-05-24T22:06:27.965,25166,-0.03809,-0.93872,0.15918,-21.1792,7.44629,44.12842,0.9528821327425548,49.51083920820268,walk
2026-05-24T22:06:27.965,25186,-0.02783,-0.94214,0.18066,-20.44678,20.81299,38.69629,0.9597084578662417,48.46291597574995,walk
2026-05-24T22:06:27.965,25206,-0.02344,-0.96777,0.14404,-19.04297,28.44238,33.20313,0.9787112587990393,47.68701634913008,walk
2026-05-24T22:06:27.965,25226,-0.04126,-0.98462,0.07788,-16.47949,16.35742,30.63965,0.9885566379322938,38.44381526122245,walk
2026-05-24T22:06:27.965,25246,-0.08911,-0.98267,0.0498,-12.51221,-1.28174,28.19824,0.987957975320813,30.87618816514273,walk
2026-05-24T22:06:27.965,25266,-0.10278,-0.94824,0.0918,-8.78906,-9.0332,23.68164,0.9582014746388151,26.82659782777533,walk
2026-05-24T22:06:27.965,25286,-0.08594,-0.91626,0.13306,-6.10352,-6.10352,17.76123,0.929851082055616,19.74758729297582,walk
2026-05-24T22:06:27.965,25306,-0.07959,-0.90991,0.14136,-3.84521,-2.68555,12.26807,0.9242583111879492,13.13405345929047,walk
2026-05-24T22:06:27.965,25326,-0.10303,-0.94482,0.1333,-1.77002,-2.74658,6.89697,0.9597233472725356,7.631832524217233,walk
2026-05-24T22:06:27.965,25346,-0.11719,-0.979,0.13062,0.48828,-2.31934,0.79346,0.994603479030714,2.4994667762544873,walk
2026-05-24T22:06:27.965,25366,-0.12769,-0.99634,0.11523,3.54004,-2.74658,-5.43213,1.011076695706117,7.0415638344688745,walk
2026-05-24T22:06:28.593,25827,0.1228,-0.95679,0.22949,14.34326,-21.60645,-40.46631,0.991560691132923,48.063395989528246,walk
2026-05-24T22:06:28.593,25847,0.18213,-0.94189,0.22437,13.18359,-17.7002,-39.67285,0.9852258654237616,45.39866906034361,walk
2026-05-24T22:06:28.593,25867,0.19751,-0.94751,0.19556,12.146,-15.25879,-38.33008,0.9874356251422165,43.006406744466574,walk
2026-05-24T22:06:28.593,25887,0.19092,-0.96558,0.19482,11.47461,-13.97705,-37.17041,1.0033693314029486,41.33598893122916,walk
2026-05-24T22:06:28.593,25907,0.22632,-0.95483,0.20361,11.47461,-14.28223,-35.46143,1.0021866609569297,39.914430799773406,walk
2026-05-24T22:06:28.593,25927,0.25146,-0.93506,0.20068,11.23047,-16.72363,-32.95898,0.9888588360327272,38.627679446715405,walk
2026-05-24T22:06:28.593,25947,0.21875,-0.96802,0.19287,10.80322,-18.55469,-31.31104,1.0109961027620236,37.96534352861962,walk
2026-05-24T22:06:28.593,25967,0.22363,-0.97754,0.18311,10.49805,-20.81299,-29.54102,1.0193743672468913,37.63059219814379,walk
2026-05-24T22:06:28.593,25987,0.25391,-0.9563,0.20215,10.55908,-22.88818,-27.9541,1.009873556738664,37.64033290193911,walk
2026-05-24T22:06:28.593,26007,0.25098,-0.95312,0.20581,10.31494,-23.4375,-26.79443,1.0068696295449575,37.06286379219097,walk
2026-05-24T22:06:28.593,26027,0.22021,-0.95239,0.21558,9.76562,-21.24023,-26.00098,1.0010064398394247,34.96520649728384,walk
2026-05-24T22:06:28.593,26047,0.20142,-0.96265,0.22485,9.21631,-16.78467,-26.24512,1.0088719251718723,32.488026114853454,walk
2026-05-24T22:06:28.593,26067,0.20874,-0.95703,0.22095,8.72803,-13.67188,-26.61133,1.0041402845220384,31.165071711520252,walk
2026-05-24T22:06:28.593,26087,0.20264,-0.95654,0.21387,8.23975,-9.21631,-27.22168,1.000885666847118,29.897386375751978,walk
2026-05-24T22:06:28.593,26107,0.20215,-0.95996,0.18872,8.23975,-6.10352,-27.70996,0.999001032281749,29.546375744826978,walk
2026-05-24T22:06:28.593,26127,0.22705,-0.96289,0.19897,8.42285,-5.24902,-27.70996,1.009107484612021,29.433628663222954,walk
2026-05-24T22:06:28.593,26147,0.25903,-0.94995,0.2168,8.23975,-3.05176,-27.70996,1.008218122927772,29.06971968151224,walk
2026-05-24T22:06:28.593,26167,0.28076,-0.93994,0.21729,8.30078,-2.80762,-27.28271,1.0047528677739617,28.655399903280014,walk
2026-05-24T22:06:28.593,26187,0.27246,-0.93726,0.21265,8.36182,-5.12695,-26.18408,0.9989548446751735,27.960895827231646,walk
2026-05-24T22:06:28.593,26207,0.26147,-0.94507,0.23462,8.36182,-6.65283,-25.93994,1.0082511642443066,28.054601546357773,walk
2026-05-24T22:06:29.492,26452,0.38403,-0.91528,0.20605,7.62939,5.98145,-28.56445,1.0137421377253684,30.164766527806908,walk
2026-05-24T22:06:29.492,26472,0.38892,-0.93237,0.27466,7.93457,2.56348,-27.34375,1.0469052960511758,28.586876269676615,walk
2026-05-24T22:06:29.492,26492,0.42505,-0.90845,0.33838,6.5918,14.03809,-27.83203,1.0585130747421119,31.86128829801143,walk
2026-05-24T22:06:29.492,26512,0.45947,-1.0083,0.3479,4.94385,32.77588,-25.81787,1.161385371399175,42.015025573404095,walk
2026-05-24T22:06:29.492,26532,0.44067,-1.11914,0.23755,4.82178,34.66797,-20.56885,1.2260075003848874,40.59797158247934,walk
2026-05-24T22:06:29.492,26552,0.35522,-1.29565,0.2063,3.2959,21.91162,-7.38525,1.3592092778155982,23.356454469737052,walk
2026-05-24T22:06:29.492,26572,0.33154,-1.31787,0.25757,2.0752,19.104,1.28174,1.3831277646696274,19.259079117849847,walk
2026-05-24T22:06:29.493,26592,0.29346,-1.30713,0.23413,1.15967,21.24023,8.42285,1.3599722296429437,22.87873700806712,walk
2026-05-24T22:06:29.493,26612,0.23462,-1.24023,0.17969,0.73242,17.57813,15.01465,1.2749531338053175,23.129349493139664,walk
2026-05-24T22:06:29.493,26632,0.19971,-1.13354,0.15479,0.91553,4.57764,22.03369,1.1613599613384302,22.522799074861897,walk
2026-05-24T22:06:29.493,26652,0.18262,-1.02734,0.19775,0.0,-6.53076,28.25928,1.0620181742795176,29.004098543068014,walk
2026-05-24T22:06:29.493,26672,0.18042,-0.97925,0.26416,-2.50244,-5.43213,32.77588,1.030175928907291,33.31709099043462,walk
2026-05-24T22:06:29.493,26692,0.19092,-0.99194,0.28467,-5.43213,2.80762,36.86523,1.049491504920359,37.368916887624664,walk
2026-05-24T22:06:29.493,26712,0.2019,-1.00903,0.27563,-8.48389,9.64355,41.07666,1.0653060817436462,43.03796513417194,walk
2026-05-24T22:06:29.493,26732,0.20532,-0.99951,0.2583,-11.23047,13.18359,45.8374,1.052566117875737,48.9999769435558,walk
2026-05-24T22:06:29.493,26752,0.21191,-0.96924,0.25098,-13.73291,13.97705,51.08643,1.0233879939201944,54.715391563210986,walk
2026-05-24T22:06:29.493,26772,0.22095,-0.9502,0.23853,-16.11328,13.30566,56.45752,1.0042885558443848,60.20074704639802,walk
2026-05-24T22:06:29.493,26792,0.22168,-0.96631,0.21411,-17.7002,9.15527,62.25586,1.0142682734858661,65.36748544308936,walk
2026-05-24T22:06:29.493,26812,0.20459,-0.95557,0.19067,-18.85986,2.68555,67.87109,0.9956536254641972,70.4939100618642,walk
2026-05-24T22:06:29.493,26832,0.18457,-0.93262,0.18652,-19.40918,-4.08936,72.5708,0.9688322144210524,75.23270662499124,walk
2026-05-24T22:06:30.020,27428,0.03247,-0.89844,0.04663,8.42285,-1.52588,-45.77637,0.9002350200919758,46.56982673656624,walk
2026-05-24T22:06:30.020,27448,-0.00562,-0.95947,0.10425,9.94873,-7.56836,-43.396,0.965133321256706,45.160492885956195,walk
2026-05-24T22:06:30.020,27468,0.00684,-0.98145,0.12988,9.8877,-15.625,-41.25977,0.9900301523186049,45.213668914863575,walk
2026-05-24T22:06:30.020,27488,0.02881,-0.96313,0.15796,9.64355,-11.53564,-40.64941,0.9764224365509019,43.34101498765575,walk
2026-05-24T22:06:30.020,27508,0.08594,-0.94238,0.19189,9.15527,-5.06592,-39.30664,0.9655503716016063,40.67547740726469,walk
2026-05-24T22:06:30.020,27528,0.07959,-0.98682,0.15088,8.97217,-7.32422,-37.53662,1.001455468256078,39.28284452711769,walk
2026-05-24T22:06:30.020,27548,0.09033,-0.98242,0.14893,9.21631,-13.73291,-35.33936,0.9977418053785257,39.01799011089371,walk
2026-05-24T22:06:30.020,27568,0.10303,-0.96704,0.16211,8.97217,-16.8457,-32.83691,0.9859316378938248,37.98078594956929,walk
2026-05-24T22:06:30.020,27588,0.07446,-0.97461,0.2002,8.23975,-11.23047,-32.4707,0.9977419424380234,35.33218497310066,walk
2026-05-24T22:06:30.020,27608,0.08789,-0.98926,0.18506,7.62939,-10.80322,-31.31104,1.0102510595391623,33.989680493086425,walk
2026-05-24T22:06:30.020,27628,0.09302,-0.9812,0.16235,7.56836,-15.25879,-30.15137,0.9988812156107452,34.62969619027288,walk
2026-05-24T22:06:30.020,27648,0.0769,-0.97852,0.15405,7.20215,-11.96289,-29.60205,0.9935524157788556,32.73015530022887,walk
2026-05-24T22:06:30.020,27668,0.06909,-0.98535,0.1499,7.14111,-9.27734,-29.84619,0.9990786058163792,32.0602487049586,walk
2026-05-24T22:06:30.020,27688,0.04858,-0.9873,0.1394,7.8125,-10.19287,-29.66309,0.998275345984263,32.32380954397238,walk
2026-05-24T22:06:30.020,27708,0.05518,-0.98022,0.1499,8.23975,-12.02393,-29.66309,0.993149581281692,33.050980031694976,walk
2026-05-24T22:06:30.020,27728,0.06274,-0.96973,0.18481,7.87354,-6.83594,-30.63965,0.9891750687315163,32.36527243725441,walk
2026-05-24T22:06:30.020,27748,0.09009,-0.96143,0.20557,6.89697,3.11279,-32.10449,0.9872805467039245,32.98417703877269,walk
2026-05-24T22:06:30.020,27768,0.10156,-0.97241,0.18726,6.71387,7.38525,-32.59277,0.9954707174497901,34.08675144704024,walk
2026-05-24T22:06:30.020,27788,0.11621,-0.98022,0.17236,6.95801,7.20215,-32.4707,1.0020199509490817,33.979865012571786,walk
2026-05-24T22:06:30.020,27808,0.17578,-0.96191,0.16235,7.50732,12.45117,-32.34863,0.9912249890917804,35.46583357018696,walk
2026-05-24T22:06:30.635,27872,0.18091,-0.98413,0.14746,13.3667,-23.01025,-26.24512,1.011427079230134,37.37574879205633,walk
2026-05-24T22:06:30.635,27892,0.15601,-0.97363,0.1709,13.12256,-13.06152,-27.34375,1.0007503719709527,33.02250065828601,walk
2026-05-24T22:06:30.635,27912,0.20996,-0.91284,0.16821,12.87842,5.7373,-29.72412,0.9516589049128895,32.89823130140586,walk
2026-05-24T22:06:30.635,27932,0.19287,-0.99756,0.10815,14.28223,2.44141,-29.05273,1.0217735624882844,32.465423099259,walk
2026-05-24T22:06:30.635,27952,0.21802,-0.97437,0.14844,15.68604,-5.18799,-27.70996,1.009437492319361,32.26157116947809,walk
2026-05-24T22:06:30.635,27972,0.20483,-0.95898,0.21118,15.68604,2.13623,-28.13721,1.0030926984581237,32.284948754467614,walk
2026-05-24T22:06:30.635,27992,0.23413,-0.927,0.21094,15.68604,11.41357,-29.29688,0.9791024157359638,35.137282318940095,walk
2026-05-24T22:06:30.635,28012,0.2207,-0.96631,0.19409,15.99121,10.0708,-28.74756,1.0100170464898106,34.402936151696416,walk
2026-05-24T22:06:30.636,28032,0.26245,-0.96753,0.23389,16.54053,5.85937,-27.771,1.0294167452980352,32.85041537755345,walk
2026-05-24T22:06:30.636,28052,0.30469,-0.9292,0.26025,16.47949,2.38037,-26.55029,1.0119183260520586,31.339394555113856,walk
2026-05-24T22:06:30.636,28072,0.31909,-0.92212,0.29492,15.93018,3.23486,-25.63477,1.0193632958371612,30.35418236429537,walk
2026-05-24T22:06:30.636,28092,0.30884,-0.9353,0.30444,15.25879,1.34277,-24.53613,1.0309471127075336,28.924995746134517,walk
2026-05-24T22:06:30.636,28112,0.31396,-0.92065,0.33984,14.03809,0.18311,-23.07129,1.030368152506666,27.007145765228508,walk
2026-05-24T22:06:30.636,28132,0.32593,-0.9248,0.35889,12.57324,1.09863,-22.3999,1.0441682991740364,25.71087069674032,walk
2026-05-24T22:06:30.636,28152,0.30103,-0.94214,0.33887,11.41357,-0.73242,-20.99609,1.0455045276802966,23.909032069270392,walk
2026-05-24T22:06:30.636,28172,0.27441,-0.93677,0.32617,10.19287,-4.88281,-20.01953,1.0291869363240091,22.98951965035155,walk
2026-05-24T22:06:30.636,28192,0.25586,-0.91528,0.37646,8.72803,-5.67627,-20.20264,1.0222152168697158,22.727631019606946,walk
2026-05-24T22:06:30.636,28212,0.26807,-0.91895,0.41675,6.89697,-8.05664,-19.89746,1.0440360098674757,22.54742907122894,walk
2026-05-24T22:06:30.636,28232,0.22217,-1.22412,0.51099,2.80762,13.30566,-20.26367,1.3449684246851301,24.403680869264374,walk
2026-05-24T22:06:30.636,28252,0.17407,-1.12671,0.38501,-0.79346,35.5835,-20.32471,1.2033322438545393,40.986691591365364,walk
2026-05-24T22:06:31.744,28492,0.0835,-0.94287,0.18823,-25.08545,2.86865,80.13916,0.9650940989354354,84.0225798225132,walk
2026-05-24T22:06:31.744,28512,0.06226,-0.93921,0.19678,-26.48926,2.13623,83.06885,0.9616205593164073,87.21627264612378,walk
2026-05-24T22:06:31.744,28532,0.04004,-0.92627,0.19873,-27.64893,1.52588,84.65576,0.9481945619966401,89.06957584437517,walk
2026-05-24T22:06:31.744,28552,0.00903,-0.92456,0.19531,-28.68652,0.73242,85.02197,0.9450072648398001,89.73398604457343,walk
2026-05-24T22:06:31.744,28572,-0.00977,-0.90527,0.19653,-29.60205,1.34277,83.92334,0.9264088010700244,89.00118758887996,walk
2026-05-24T22:06:31.744,28592,-0.01807,-0.89478,0.18433,-30.27344,-0.91553,82.15332,0.9137479533219213,87.55847961012627,walk
2026-05-24T22:06:31.744,28612,-0.02124,-0.89746,0.19873,-30.45654,-5.98145,78.36914,0.919445051158578,84.29175924853924,walk
2026-05-24T22:06:31.744,28632,-0.05566,-0.91431,0.18945,-30.39551,-5.92041,72.14355,0.9353887503065236,78.50878988578731,walk
2026-05-24T22:06:31.744,28652,-0.16333,-0.86963,0.19214,-28.44238,-9.64355,74.58496,0.9054561311294987,80.40449797659643,walk
2026-05-24T22:06:31.744,28672,-0.10498,-0.9292,0.2229,-30.15137,1.70898,65.42969,0.9613104859513393,72.0629589942947,walk
2026-05-24T22:06:31.744,28692,-0.09839,-0.9043,0.16309,-31.86035,7.01904,59.2041,0.9241414557306691,67.59788666411177,walk
2026-05-24T22:06:31.744,28712,-0.10474,-0.97632,0.13672,-30.82275,1.2207,53.77197,0.9913947591146526,61.991586394714886,walk
2026-05-24T22:06:31.744,28732,-0.1355,-1.0144,0.12524,-28.44238,-9.33838,48.21777,1.0310444547157023,56.754979207658074,walk
2026-05-24T22:06:31.744,28752,-0.1377,-1.02002,0.14111,-25.93994,-9.46045,40.16113,1.038900439166333,48.73701841806698,walk
2026-05-24T22:06:31.744,28772,-0.12891,-0.98315,0.16333,-24.23096,-4.82178,31.55518,1.0049270617811026,40.076406646833995,walk
2026-05-24T22:06:31.744,28792,-0.10205,-0.95703,0.17773,-22.88818,0.91553,22.82715,0.9787280400090722,32.338610916608644,walk
2026-05-24T22:06:31.744,28812,-0.08203,-0.96948,0.1626,-21.91162,4.5166,14.34326,0.9864376063897807,26.57532453258097,walk
2026-05-24T22:06:31.744,28832,-0.06641,-0.96143,0.12354,-19.83643,2.86865,6.65283,0.9716069496457916,21.118078865661527,walk
2026-05-24T22:06:31.744,28852,-0.03711,-1.01123,0.1543,-17.76123,1.0376,-1.0376,1.0236072269186067,17.821742861821903,walk
2026-05-24T22:06:31.744,28872,-0.04761,-1.00635,0.177,-15.86914,4.39453,-9.64355,1.022905682162339,19.082441009027118,walk
2026-05-24T22:06:32.358,29680,0.21094,-0.98169,0.13818,19.04297,-13.79395,-20.32471,1.0135603840423124,31.080566269093296,walk
2026-05-24T22:06:32.358,29700,0.20874,-0.97998,0.13354,19.71436,-19.53125,-19.104,1.0108244751686615,33.69107497204712,walk
2026-05-24T22:06:32.358,29720,0.18896,-0.97168,0.15796,20.62988,-28.9917,-17.8833,1.0024067366094462,39.823649212426524,walk
2026-05-24T22:06:32.358,29740,0.17041,-0.96021,0.23145,20.20264,-32.4707,-17.45605,1.002303304743629,42.038157702997644,walk
2026-05-24T22:06:32.358,29760,0.12549,-0.96191,0.30225,18.61572,-31.43311,-18.43262,1.0160578973168803,40.91878438388535,walk
2026-05-24T22:06:32.358,29780,0.11572,-0.95581,0.43018,14.64844,-16.6626,-21.1792,1.0545229759943593,30.672097186752655,walk
2026-05-24T22:06:32.358,29800,0.15576,-0.927,0.49121,9.33838,17.63916,-26.7334,1.0606023956695554,33.36195411078314,walk
2026-05-24T22:06:32.358,29820,0.24243,-0.92236,0.44165,5.00488,44.43359,-30.09033,1.0509876293277671,53.896388595261186,walk
2026-05-24T22:06:32.358,29840,0.25171,-1.04028,0.3728,1.89209,52.30713,-24.96338,1.1333667731586277,57.98953521480751,walk
2026-05-24T22:06:32.358,29860,0.17847,-1.15625,0.22412,-0.97656,46.875,-15.56396,1.1912159240876525,49.40097312113598,walk
2026-05-24T22:06:32.358,29880,0.16113,-1.28882,0.14551,-0.42725,34.24072,-3.17383,1.3069785879653883,34.39015332256895,walk
2026-05-24T22:06:32.358,29900,0.10791,-1.2832,0.12817,-0.12207,18.12744,8.8501,1.2940920975726573,20.172834507041888,walk
2026-05-24T22:06:32.358,29920,0.04883,-1.20142,0.15942,0.0,6.46973,17.57813,1.212934096189896,18.73093859286822,walk
2026-05-24T22:06:32.358,29940,0.01318,-1.10156,0.1731,-0.85449,-0.42725,24.84131,1.115155485123039,24.85967373556419,walk
2026-05-24T22:06:32.358,29960,-0.01221,-1.02002,0.18066,-2.19727,-3.35693,30.45654,1.0359671423843517,30.71966476459989,walk
2026-05-24T22:06:32.358,29980,-0.02783,-0.96411,0.19019,-3.66211,-3.41797,35.46143,0.9830843489243434,35.81349726315346,walk
2026-05-24T22:06:32.358,30000,-0.03198,-0.93311,0.21143,-5.85937,0.24414,39.00146,0.9572980922366867,39.43989988917442,walk
2026-05-24T22:06:32.359,30020,-0.02905,-0.92212,0.21362,-8.23975,6.95801,41.87012,0.9469861146289317,43.236724344438954,walk
2026-05-24T22:06:32.359,30040,-0.01953,-0.91626,0.19604,-10.31494,10.86426,44.55566,0.9372008803346271,47.006775794419255,walk
2026-05-24T22:06:32.359,30060,-0.01929,-0.92114,0.18774,-12.02393,11.35254,47.54639,0.9402751253223707,50.33998668184767,walk
2026-05-24T22:06:33.300,30400,-0.02515,-1.04834,0.16992,-14.52637,-14.5874,26.00098,1.0623192008525497,33.16411652821917,walk
2026-05-24T22:06:33.300,30420,-0.02051,-1.04663,0.17896,-14.70947,-10.86426,23.92578,1.0620177487217433,30.113844019601682,walk
2026-05-24T22:06:33.300,30440,-0.03271,-1.04785,0.17017,-13.97705,-4.76074,20.93506,1.0620816331619711,25.618339314906812,walk
2026-05-24T22:06:33.300,30460,-0.0293,-1.03638,0.13477,-13.85498,-2.31934,18.85986,1.0455165935077262,23.51667765768796,walk
2026-05-24T22:06:33.300,30480,-0.00952,-1.01196,0.1438,-13.12256,-4.69971,17.15088,1.0221702950095937,22.100713558889904,walk
2026-05-24T22:06:33.300,30500,0.00659,-0.98584,0.12891,-12.02393,-2.44141,14.34326,0.9942543546799281,18.874969744627407,walk
2026-05-24T22:06:33.300,30520,0.00537,-0.98657,0.08569,-9.94873,-5.98145,12.57324,0.9902989336054038,17.112607539852014,walk
2026-05-24T22:06:33.300,30540,0.00806,-0.98437,0.08887,-7.20215,-16.60156,11.84082,0.9884063624845805,21.626090199767965,walk
2026-05-24T22:06:33.300,30560,0.0083,-0.96924,0.11621,-6.53076,-23.49854,11.1084,0.9762171027491784,26.799790276589853,walk
2026-05-24T22:06:33.300,30580,0.0376,-0.97021,0.15991,-5.18799,-20.1416,7.93457,0.984018501960202,22.261102665524007,walk
2026-05-24T22:06:33.300,30600,0.03613,-0.98047,0.16724,-4.76074,-13.5498,4.69971,0.9952869010491396,15.111220978852105,walk
2026-05-24T22:06:33.300,30620,0.03345,-0.99536,0.15234,-3.2959,-10.98633,1.34277,1.007505785442446,11.548395340990021,walk
2026-05-24T22:06:33.300,30640,0.03711,-0.97656,0.1394,-2.01416,-9.58252,-2.13623,0.9871570015453469,10.022225734281783,walk
2026-05-24T22:06:33.301,30660,0.03613,-0.95508,0.11475,0.24414,-12.146,-5.24902,0.9626270024261734,13.23393861630014,walk
2026-05-24T22:06:33.301,30680,0.06787,-0.89502,0.1167,2.92969,-16.96777,-8.78906,0.905144202489305,19.33224968679538,walk
2026-05-24T22:06:33.301,30700,0.073,-0.84888,0.11719,5.00488,-23.74268,-11.16943,0.8600347379612059,26.71179222593834,walk
2026-05-24T22:06:33.301,30720,0.03418,-1.73193,0.34033,1.46484,-17.39502,-5.18799,1.7653821983355333,18.211197579129713,walk
2026-05-24T22:06:33.301,30740,-0.14771,-0.98877,0.19653,5.12695,3.72314,-30.09033,1.018876046386409,30.750208898005884,walk
2026-05-24T22:06:33.301,30760,-0.04907,-0.79468,0.17041,6.04248,-11.04736,-22.88818,0.8142258503633989,26.123256137633376,walk
2026-05-24T22:06:33.301,30780,-0.00977,-0.96924,0.22266,9.09424,-9.0332,-24.59717,0.9945346178489717,27.736702677616528,walk
2026-05-24T22:06:33.785,31158,0.16455,-0.979,0.15967,6.16455,16.54053,-26.48926,1.0054910299947981,31.831929013664883,walk
2026-05-24T22:06:33.786,31178,0.16064,-0.9939,0.16357,7.08008,14.46533,-24.6582,1.0199988061267524,29.45165754342699,walk
2026-05-24T22:06:33.786,31198,0.15015,-0.99902,0.14453,7.75146,12.51221,-22.58301,1.0205267776006663,26.956128651492225,walk
2026-05-24T22:06:33.786,31218,0.16992,-0.99097,0.14136,8.17871,14.70947,-21.66748,1.0153211299387008,27.43609838325049,walk
2026-05-24T22:06:33.786,31238,0.15698,-0.99951,0.0791,9.64355,12.3291,-20.20264,1.0148496295018292,25.556827392735975,walk
2026-05-24T22:06:33.786,31258,0.10596,-1.00732,0.03564,11.77979,1.52588,-18.24951,1.0135044714257555,21.77467284389366,walk
2026-05-24T22:06:33.786,31278,0.07104,-1.00049,0.07324,13.85498,-6.83594,-17.02881,1.005679381960275,22.9928448979264,walk
2026-05-24T22:06:33.786,31298,0.06763,-0.98657,0.177,14.22119,-5.43213,-17.8833,1.0046010062706487,23.48537204821333,walk
2026-05-24T22:06:33.786,31318,0.07227,-0.97314,0.26733,13.12256,6.89697,-20.08057,1.0117755390401568,24.959949271971688,walk
2026-05-24T22:06:33.786,31338,0.10547,-0.9563,0.31494,11.23047,24.78027,-23.01025,1.0123343392871744,35.63224442490678,walk
2026-05-24T22:06:33.786,31358,0.13721,-0.97168,0.28589,9.52148,34.97314,-24.10889,1.022116284284719,43.53180078841329,walk
2026-05-24T22:06:33.786,31378,0.16748,-0.96387,0.26733,8.78906,36.43799,-23.74268,1.0141795976058678,44.36991711177856,walk
2026-05-24T22:06:33.786,31398,0.1814,-0.95923,0.27417,7.8125,36.86523,-22.88818,1.014000661636865,44.0902384084652,walk
2026-05-24T22:06:33.786,31418,0.18823,-0.96924,0.27393,7.14111,32.95898,-21.42334,1.0246435260128275,39.95308888469201,walk
2026-05-24T22:06:33.786,31438,0.17651,-0.96924,0.25659,6.83594,24.29199,-19.53125,1.018047339665499,31.91082230852411,walk
2026-05-24T22:06:33.786,31458,0.14209,-0.97168,0.20947,7.44629,11.35254,-17.33398,1.0041062052392664,22.01804400613506,walk
2026-05-24T22:06:33.786,31478,0.11548,-0.95605,0.22778,7.62939,3.479,-16.60156,0.9895710996689424,18.599000704492163,walk
2026-05-24T22:06:33.786,31498,0.08154,-0.97705,0.25073,7.38525,2.19727,-17.39502,1.0119985212439788,19.02515791828809,walk
2026-05-24T22:06:33.786,31518,0.0686,-0.97461,0.2666,6.65283,2.56348,-18.79883,1.0127419079410114,20.105411860695618,walk
2026-05-24T22:06:33.786,31538,0.06812,-0.9751,0.28369,5.98145,4.08936,-20.75195,1.0178115545129167,21.980537712135252,walk
2026-05-24T22:06:34.232,31638,0.13843,-0.96948,0.26611,3.05176,11.71875,-27.52686,1.014824550057792,30.072751156482173,walk
2026-05-24T22:06:34.232,31658,0.15698,-0.92627,0.25708,4.08936,10.55908,-28.38135,0.9740169196169028,30.556800609332452,walk
2026-05-24T22:06:34.232,31678,0.18677,-0.94434,0.22388,4.3335,5.37109,-28.68652,0.9883234910190083,29.504987031830737,walk
2026-05-24T22:06:34.232,31698,0.18433,-0.96533,0.22266,5.00488,-3.05176,-27.28271,1.0076790329266556,27.905345865194004,walk
2026-05-24T22:06:34.232,31718,0.18213,-1.01685,0.23291,4.88281,-2.44141,-25.93994,1.0589628546365544,26.50816484571876,walk
2026-05-24T22:06:34.232,31738,0.18188,-1.12476,0.17871,3.78418,5.79834,-22.58301,1.153300765672164,23.62060764857882,walk
2026-05-24T22:06:34.232,31758,0.14624,-1.21436,0.15137,2.92969,5.18799,-11.23047,1.2324646948695934,12.713055500433404,walk
2026-05-24T22:06:34.232,31778,0.12915,-1.20483,0.13916,2.56348,-4.88281,-2.38037,1.2196969119416512,6.006615065359191,walk
2026-05-24T22:06:34.232,31798,0.10352,-1.13989,0.14648,1.46484,-16.54053,6.53076,1.1539159384027937,17.843366136581405,walk
2026-05-24T22:06:34.232,31818,0.09546,-1.10791,0.18457,-0.36621,-17.94434,13.3667,1.1272281333430247,22.378608461870456,walk
2026-05-24T22:06:34.232,31838,0.09741,-1.08838,0.24072,-3.60107,-6.65283,17.57813,1.1189306729641475,19.136836375187514,walk
2026-05-24T22:06:34.232,31858,0.1001,-1.09082,0.22217,-7.08008,5.18799,21.72852,1.1177064870975741,23.43440535701514,walk
2026-05-24T22:06:34.232,31878,0.09937,-1.07544,0.15405,-9.33838,0.67139,27.40479,1.0909523330558488,28.959948558321024,walk
2026-05-24T22:06:34.232,31898,0.08423,-1.02563,0.17358,-11.65771,-9.0332,33.20313,1.0436194738505027,36.331098888982154,walk
2026-05-24T22:06:34.232,31918,0.07275,-0.98413,0.21313,-14.95361,-5.92041,37.35352,1.0095686288212407,40.66874921841831,walk
2026-05-24T22:06:34.232,31938,0.07446,-0.95605,0.21606,-18.98193,4.39453,40.1001,0.9829841390887241,44.58299653966521,walk
2026-05-24T22:06:34.232,31958,0.10449,-0.92993,0.19824,-22.64404,5.5542,44.31152,0.9565495609742342,50.07107438304075,walk
2026-05-24T22:06:34.232,31978,0.12402,-0.96118,0.16821,-25.63477,-0.48828,49.37744,0.9836374112954428,55.63732048962189,walk
2026-05-24T22:06:34.232,31998,0.11792,-1.00415,0.14771,-27.64893,-4.02832,53.28369,1.0217830459544728,60.16512538159794,walk
2026-05-24T22:06:34.232,32018,0.11572,-1.00342,0.14209,-29.72412,-2.92969,55.11475,1.020015873847069,62.6876547721559,walk
2026-05-24T22:06:34.684,32091,0.08325,-0.90991,0.17554,-33.38623,-6.34766,52.36816,0.9304198311515077,62.428818048030514,walk
2026-05-24T22:06:34.684,32111,0.06152,-0.91235,0.16309,-30.70068,-3.84521,53.95508,0.9288517540490517,62.19700997807612,walk
2026-05-24T22:06:34.684,32131,0.06714,-0.94727,0.13623,-32.40967,6.83594,50.59814,0.9593679405733756,60.47552030906473,walk
2026-05-24T22:06:34.684,32151,0.07983,-0.98486,0.08545,-31.12793,9.76562,46.75293,0.991778075478582,57.010102820940425,walk
2026-05-24T22:06:34.684,32171,0.06372,-0.98364,0.05249,-28.80859,6.95801,44.73877,0.9870983173423,53.66475847389141,walk
2026-05-24T22:06:34.684,32191,0.08276,-0.94897,0.04565,-29.1748,6.16455,42.11426,0.9536651409168734,51.60214653568299,walk
2026-05-24T22:06:34.684,32211,0.07788,-0.91528,0.04565,-26.55029,1.28174,40.83252,0.9197209877457402,48.72222743329886,walk
2026-05-24T22:06:34.684,32231,0.07129,-0.91138,0.06055,-24.71924,0.06104,38.51318,0.9161670540900279,45.763627323143865,walk
2026-05-24T22:06:34.684,32251,0.06201,-0.94434,0.04395,-22.70508,1.40381,36.25488,0.9473937292382718,42.80079046158961,walk
2026-05-24T22:06:34.684,32271,0.06543,-0.93628,0.02612,-19.9585,0.06104,33.93555,0.9389268223349464,39.36962029197259,walk
2026-05-24T22:06:34.684,32291,0.07861,-0.91235,0.02905,-16.90674,-8.36182,33.08105,0.9161910047037135,38.08035924518701,walk
2026-05-24T22:06:34.684,32311,0.08252,-0.93164,0.05811,-14.03809,-18.55469,32.89795,0.9370909305398276,40.2941634240829,walk
2026-05-24T22:06:34.684,32331,0.07178,-0.97388,0.07666,-11.59668,-19.9585,31.00586,0.9795260988865994,38.654728864810316,walk
2026-05-24T22:06:34.684,32351,0.0647,-0.96948,0.05737,-8.66699,-17.39502,28.01514,0.9733287611593525,34.09620955003796,walk
2026-05-24T22:06:34.684,32371,0.06934,-0.94702,0.04639,-5.49316,-22.94922,26.30615,0.9506876185687915,35.33914307416777,walk
2026-05-24T22:06:34.684,32391,0.08154,-0.94727,0.07031,-2.62451,-34.85107,25.45166,0.9533691418333193,43.23507985005463,walk
2026-05-24T22:06:34.684,32411,0.06982,-0.99487,0.10571,0.0,-43.02979,23.80371,1.0029036610761775,49.17498792280686,walk
2026-05-24T22:06:34.684,32431,0.06128,-1.0127,0.12817,2.0752,-41.1377,20.32471,1.0226162903552827,45.93158665792093,walk
2026-05-24T22:06:34.685,32451,0.05713,-0.99146,0.14771,3.72314,-32.83691,15.19775,1.0040293883149038,36.37438707208962,walk
2026-05-24T22:06:34.685,32471,0.07446,-0.96216,0.12842,5.43213,-31.79932,10.98633,0.9735439659306611,34.07938138623118,walk
2026-05-24T22:06:35.313,32538,-0.0647,-1.01343,0.43579,8.72803,-1.95312,-24.10889,1.10505175399164,25.714427126564573,walk
2026-05-24T22:06:35.313,32558,-0.146,-0.89771,0.28931,7.08008,9.8877,-26.18408,0.9544105616557268,28.870403349153268,walk
2026-05-24T22:06:35.313,32578,-0.08667,-0.90112,0.16724,12.08496,0.73242,-16.41846,0.9205966331135478,20.39971877329685,walk
2026-05-24T22:06:35.313,32598,-0.16724,-1.00293,0.16406,14.16016,-12.87842,-11.2915,1.0299288742918125,22.22300171380995,walk
2026-05-24T22:06:35.313,32618,-0.17285,-1.04419,0.10547,6.83594,1.2207,-20.1416,1.0636417627660169,21.305028390818915,walk
2026-05-24T22:06:35.313,32638,-0.12402,-0.9812,0.18042,6.89697,11.41357,-22.2168,1.005328690926505,25.911850137838478,walk
2026-05-24T22:06:35.313,32658,-0.14429,-1.00879,0.10205,7.38525,7.8125,-22.52197,1.0241538315604741,24.95628591143722,walk
2026-05-24T22:06:35.313,32678,-0.12671,-0.98315,0.09497,7.44629,2.13623,-22.15576,0.9958205900160932,23.47101221836417,walk
2026-05-24T22:06:35.313,32698,-0.1084,-0.99292,0.10889,7.26318,0.42725,-22.15576,1.0047376366494887,23.319820484997305,walk
2026-05-24T22:06:35.314,32718,-0.07666,-0.99463,0.11841,7.14111,1.46484,-22.15576,1.0045827594578758,23.324212943533595,walk
2026-05-24T22:06:35.314,32738,-0.03516,-0.98535,0.14404,6.83594,5.31006,-21.97266,0.9964428582211827,23.616193604448622,walk
2026-05-24T22:06:35.314,32758,-0.01123,-0.99561,0.1311,6.5918,6.71387,-21.3623,1.0042671930318146,23.342573527931748,walk
2026-05-24T22:06:35.314,32778,-0.02417,-0.99976,0.07837,6.71387,2.80762,-20.08057,1.0031181901451094,21.358559688476188,walk
2026-05-24T22:06:35.314,32798,-0.04004,-0.99512,0.07397,7.20215,4.15039,-19.65332,0.9986684018732144,21.338924265224804,walk
2026-05-24T22:06:35.314,32818,-0.05078,-0.99438,0.05737,8.05664,6.83594,-19.53125,0.9973271828743063,22.206063368722067,walk
2026-05-24T22:06:35.314,32838,-0.04248,-1.00342,0.05249,8.97217,2.19727,-18.61572,1.0056895380285111,20.781550978697428,walk
2026-05-24T22:06:35.314,32858,-0.04468,-1.00781,0.06641,9.8877,-7.69043,-17.51709,1.0109834749391309,21.53503580082931,walk
2026-05-24T22:06:35.314,32878,-0.05933,-1.00269,0.17236,9.64355,-4.69971,-18.31055,1.019124749282442,21.221724057887002,walk
2026-05-24T22:06:35.314,32898,-0.02979,-0.98071,0.22217,8.36182,6.46973,-19.65332,1.0060015194322522,22.316595327417218,walk
2026-05-24T22:06:35.314,32918,0.01416,-0.98315,0.1936,7.26318,10.31494,-19.89746,1.0021304246953087,23.559725918770784,walk
2026-05-24T22:06:35.754,33161,-0.01758,-0.99438,0.13208,4.82178,-1.70898,-18.37158,1.003267545174267,19.070530320502364,walk
2026-05-24T22:06:35.754,33181,-0.02466,-0.99316,0.15747,4.82178,-1.52588,-19.47021,1.005868630637222,20.116335391589097,walk
2026-05-24T22:06:35.754,33201,-0.01587,-0.98828,0.14941,4.94385,-2.80762,-20.26367,0.9996362155304299,21.046156531675802,walk
2026-05-24T22:06:35.754,33221,-0.02466,-0.99268,0.16797,4.82178,-3.60107,-21.66748,1.0070926565614506,22.487706798686702,walk
2026-05-24T22:06:35.754,33241,-0.0376,-0.99023,0.21118,3.84521,2.56348,-23.98682,1.0131960349803981,24.42794717873158,walk
2026-05-24T22:06:35.754,33261,-0.02148,-0.98291,0.21167,3.41797,6.83594,-26.12305,1.005672733745924,27.218125135780383,walk
2026-05-24T22:06:35.754,33281,0.01025,-0.98486,0.18433,2.62451,11.23047,-28.44238,1.0020138876283102,30.691700657105986,walk
2026-05-24T22:06:35.754,33301,0.04077,-0.97827,0.13696,2.86865,13.73291,-29.84619,0.9886518231409883,32.97903921291067,walk
2026-05-24T22:06:35.754,33321,0.03857,-0.98047,0.15015,3.23486,9.58252,-30.2124,0.9926500331436049,31.86029068495766,walk
2026-05-24T22:06:35.754,33341,0.02637,-0.98853,0.19214,3.11279,11.23047,-32.04346,1.0073751621913258,34.09686564446357,walk
2026-05-24T22:06:35.754,33361,0.03467,-0.98315,0.16089,2.92969,17.8833,-34.05762,0.9968307396443992,38.57871151879622,walk
2026-05-24T22:06:35.754,33381,0.07202,-0.96533,0.09937,3.90625,20.1416,-35.7666,0.9730998336244848,41.23339077959148,walk
2026-05-24T22:06:35.754,33401,0.07471,-0.9873,0.09106,5.43213,13.48877,-36.25488,0.9943011604639712,39.06240233605967,walk
2026-05-24T22:06:35.754,33421,0.08911,-0.97681,0.15771,6.5918,2.56348,-36.01074,0.9934640468079355,36.69872821090671,walk
2026-05-24T22:06:35.754,33441,0.08203,-0.96338,0.23511,6.04248,7.26318,-37.8418,0.9950410330232617,39.00342517655084,walk
2026-05-24T22:06:35.754,33461,0.09912,-0.97314,0.2146,4.88281,22.88818,-40.58838,1.0014386621256441,46.8521846687313,walk
2026-05-24T22:06:35.754,33481,0.16821,-0.95605,0.1438,5.43213,24.35303,-41.74805,0.9813280015366931,48.636177741680115,walk
2026-05-24T22:06:35.754,33501,0.22778,-0.94507,0.09253,7.44629,4.08936,-39.30664,0.9765259004245611,40.21420206921057,walk
2026-05-24T22:06:35.755,33521,0.23608,-0.97437,0.12744,9.33838,-14.89258,-35.88867,1.0106293172573215,39.96236872921449,walk
2026-05-24T22:06:35.755,33541,0.26294,-0.97852,0.20728,9.27734,-15.99121,-34.60693,1.0342165307129836,39.23553795686507,walk
2026-05-24T22:06:36.613,33613,0.14819,-1.17725,0.13037,4.69971,-17.33398,-5.7373,1.193680935384326,18.85393189800207,walk
2026-05-24T22:06:36.613,33633,0.15283,-1.15674,0.15552,2.74658,-21.78955,5.43213,1.1771112551071798,22.623797807525595,walk
2026-05-24T22:06:36.613,33653,0.14526,-1.12939,0.15308,0.97656,-26.18408,15.25879,1.1489367807238133,30.321450940614632,walk
2026-05-24T22:06:36.613,33673,0.15552,-1.12109,0.15161,-0.67139,-28.80859,25.08545,1.1419346962939692,38.205567971471126,walk
2026-05-24T22:06:36.613,33693,0.17407,-1.15039,0.17383,-2.50244,-22.94922,33.5083,1.1763989059413478,40.69072466118047,walk
2026-05-24T22:06:36.613,33713,0.17847,-1.12695,0.1604,-4.21143,-18.24951,41.25977,1.1522135233540698,45.31169140892779,walk
2026-05-24T22:06:36.613,33733,0.16895,-1.09375,0.14624,-5.61523,-15.86914,48.46191,1.1163419290701213,51.30221372553625,walk
2026-05-24T22:06:36.613,33753,0.14648,-1.05591,0.12427,-6.53076,-13.3667,54.44336,1.073240584118957,56.43933861374706,walk
2026-05-24T22:06:36.613,33773,0.13208,-1.01611,0.12476,-7.44629,-9.0332,59.021,1.0322256129839058,60.170793396830824,walk
2026-05-24T22:06:36.613,33793,0.11694,-0.95996,0.10376,-8.30078,-5.61523,62.56104,0.9726069621383553,63.358641734517164,walk
2026-05-24T22:06:36.613,33813,0.10718,-0.92163,0.08105,-9.0332,-9.58252,66.46729,0.9313745282108589,67.75930955768736,walk
2026-05-24T22:06:36.613,33833,0.07861,-0.89844,0.08179,-9.27734,-16.35742,69.2749,0.9055736136836143,71.7819336361316,walk
2026-05-24T22:06:36.613,33853,0.05322,-0.89307,0.12622,-10.0708,-15.25879,70.25146,0.9035141845593793,72.59145484859565,walk
2026-05-24T22:06:36.613,33873,0.0415,-0.89429,0.15869,-12.02393,-5.5542,68.78662,0.909208100601837,70.05014718977613,walk
2026-05-24T22:06:36.613,33893,0.02393,-0.90186,0.15088,-13.24463,3.84521,67.56592,0.9147069907352846,68.95911404033117,walk
2026-05-24T22:06:36.613,33913,0.01465,-0.89111,0.11865,-14.34326,8.66699,66.28418,0.8990936976199978,68.36986427776569,walk
2026-05-24T22:06:36.613,33933,0.00635,-0.88086,0.08081,-14.89258,4.57764,65.12451,0.8845817758692522,66.96226944904197,walk
2026-05-24T22:06:36.613,33953,0.01318,-0.90039,0.08716,-15.01465,0.54932,62.80518,0.9046948270549577,64.57733427385571,walk
2026-05-24T22:06:36.613,33973,-0.03613,-0.93921,0.09082,-13.5498,-1.52588,60.97412,0.9442823059869331,62.48014644340072,walk
2026-05-24T22:06:36.613,33993,-0.04565,-0.96143,0.10107,-13.48877,4.5166,56.64063,0.9678051003688707,58.39955101257029,walk
2026-05-24T22:06:37.389,34597,-0.08057,-0.98022,0.20264,11.71875,-3.66211,-18.85986,1.0041841180281632,22.504098969614404,walk
2026-05-24T22:06:37.389,34617,-0.07324,-0.99316,0.15845,11.41357,1.89209,-20.32471,1.0083835013029518,23.38682153044958,walk
2026-05-24T22:06:37.389,34637,-0.07935,-0.99634,0.11694,11.96289,-2.2583,-20.44678,1.0063124672287431,23.796669271360226,walk
2026-05-24T22:06:37.389,34657,-0.08813,-0.98486,0.16187,12.3291,-5.5542,-21.11816,1.001957091596242,25.0765333775544,walk
2026-05-24T22:06:37.389,34677,-0.09375,-0.9856,0.16821,12.45117,-5.5542,-22.27783,1.0042365391679393,26.118623269954334,walk
2026-05-24T22:06:37.389,34697,-0.08374,-0.9873,0.1748,12.51221,-8.78906,-23.49854,1.0061454753662613,28.03541255090247,walk
2026-05-24T22:06:37.389,34717,-0.07178,-0.97778,0.2063,12.45117,-8.36182,-24.59717,1.0018811240860863,28.809242268588044,walk
2026-05-24T22:06:37.389,34737,-0.07617,-0.98193,0.21802,12.02393,-9.33838,-26.12305,1.0087225159576838,30.235640806369556,walk
2026-05-24T22:06:37.389,34757,-0.0376,-0.96655,0.21655,11.77979,-12.69531,-26.55029,0.9912247802592509,31.69940452949077,walk
2026-05-24T22:06:37.389,34777,-0.01733,-0.96118,0.28271,10.49805,-4.63867,-28.62549,1.002044043642793,30.840638626842665,walk
2026-05-24T22:06:37.389,34797,-0.01563,-0.97046,0.28247,9.0332,2.86865,-30.70068,1.0108541978940384,32.13035336756974,walk
2026-05-24T22:06:37.389,34817,-0.02612,-0.97461,0.23486,8.30078,-0.06104,-31.73828,1.0028490046362912,32.8058697773493,walk
2026-05-24T22:06:37.389,34837,-0.01953,-0.96973,0.22095,7.8125,-0.61035,-32.83691,0.9947746459877231,33.759003861497455,walk
2026-05-24T22:06:37.389,34857,0.01733,-0.96021,0.2312,7.38525,2.19727,-34.5459,0.9878041369623838,35.39476119181199,walk
2026-05-24T22:06:37.390,34877,0.01855,-0.9646,0.21875,7.08008,0.24414,-35.40039,0.9892668118359172,36.102281774121984,walk
2026-05-24T22:06:37.390,34897,0.0354,-0.96021,0.2229,7.08008,-3.72314,-35.94971,0.986377622465149,36.82894178971343,walk
2026-05-24T22:06:37.390,34917,0.07178,-0.9563,0.24097,7.08008,-5.31006,-36.56006,0.9888015975411852,37.615984065468766,walk
2026-05-24T22:06:37.390,34937,0.09692,-0.95581,0.20337,6.40869,2.44141,-38.26904,0.9820008143581146,38.878672981800705,walk
2026-05-24T22:06:37.390,34957,0.13794,-0.95874,0.17114,7.14111,0.42725,-38.33008,0.9836151334744703,38.991961061236715,walk
2026-05-24T22:06:37.390,34977,0.14893,-0.95557,0.20044,7.93457,-5.37109,-37.59766,0.9876590319538419,38.79935626203868,walk
2026-05-24T22:06:38.223,35239,0.32544,-0.94556,0.25269,5.49316,-6.10352,-25.63477,1.0314296598896115,26.91782301986734,walk
2026-05-24T22:06:38.223,35259,0.34399,-0.94336,0.29932,4.94385,-1.2207,-25.26855,1.0477832180847333,25.7765664977902,walk
2026-05-24T22:06:38.223,35279,0.25024,-1.13232,0.23828,2.01416,6.40869,-20.08057,1.1838690799239584,21.174452520587163,walk
2026-05-24T22:06:38.223,35299,0.23853,-1.24194,0.16748,0.61035,3.11279,-11.41357,1.2756806320157097,11.84616262135127,walk
2026-05-24T22:06:38.223,35319,0.20752,-1.30249,0.16821,-0.06104,-7.26318,-0.48828,1.3296012013382057,7.279830145848185,walk
2026-05-24T22:06:38.223,35339,0.16992,-1.24902,0.20288,-1.70898,-10.13184,8.36182,1.2767474539626074,13.247446098716537,walk
2026-05-24T22:06:38.223,35359,0.15283,-1.1582,0.22095,-4.63867,-7.26318,16.23535,1.1889504411034129,18.3809040230289,walk
2026-05-24T22:06:38.223,35379,0.14258,-1.09229,0.20898,-7.87354,-6.83594,24.10889,1.1212043261154498,26.267114132452768,walk
2026-05-24T22:06:38.223,35399,0.12207,-1.06274,0.22266,-11.47461,-7.8125,31.86035,1.09265496296864,34.75318306320444,walk
2026-05-24T22:06:38.223,35419,0.11743,-1.02808,0.23633,-15.25879,-4.02832,38.33008,1.0614095157854957,41.45181620982246,walk
2026-05-24T22:06:38.223,35439,0.11646,-1.00659,0.21777,-18.9209,0.91553,44.06738,1.036441089787548,47.96636980276181,walk
2026-05-24T22:06:38.223,35459,0.12305,-0.98462,0.17871,-21.78955,3.84521,49.92676,1.008243577217331,54.60999444464539,walk
2026-05-24T22:06:38.223,35479,0.13037,-0.98389,0.13916,-23.4375,2.68555,55.96924,1.002198271102081,60.73783344201619,walk
2026-05-24T22:06:38.223,35499,0.12231,-0.96289,0.13745,-24.16992,-0.12207,61.70654,0.9803108643180489,66.27138909561877,walk
2026-05-24T22:06:38.223,35519,0.11938,-0.94922,0.14966,-24.90234,0.85449,66.22314,0.9683327467353358,70.75564261665143,walk
2026-05-24T22:06:38.223,35539,0.1084,-0.94751,0.13428,-25.32959,0.30518,70.3125,0.9630975436060462,74.73639622466754,walk
2026-05-24T22:06:38.223,35559,0.10156,-0.95581,0.12598,-25.39063,-0.91553,73.6084,0.9694112388970947,77.86988402160235,walk
2026-05-24T22:06:38.223,35579,0.08594,-0.95801,0.12451,-24.96338,-0.73242,75.92773,0.9698822525440911,79.92951246588271,walk
2026-05-24T22:06:38.223,35599,0.06494,-0.94019,0.13696,-24.4751,3.35693,76.96533,0.9523300275114714,80.83292349682645,walk
2026-05-24T22:06:38.223,35619,0.04883,-0.90918,0.12866,-24.04785,8.54492,76.47705,0.9195357724961004,80.62291190555821,walk
2026-05-24T22:06:38.668,36077,-0.25439,-0.99512,0.42529,7.8125,1.95312,-37.47559,1.1116877576909805,38.331053727134865,walk
2026-05-24T22:06:38.668,36097,-0.18481,-0.82861,0.44604,2.86865,83.25195,-43.82324,0.9590104012991725,94.12540940533857,walk
2026-05-24T22:06:38.668,36117,0.0293,-0.91016,0.24854,3.78418,101.86768,-43.76221,0.9439395357754649,110.9345539989182,walk
2026-05-24T22:06:38.668,36137,0.02173,-0.89453,0.01074,6.28662,62.56104,-31.98242,0.8948583471142235,70.5427565804059,walk
2026-05-24T22:06:38.668,36157,-0.0647,-1.02515,0.01343,3.35693,26.06201,-19.104,1.0272774588201572,32.487846346980284,walk
2026-05-24T22:06:38.668,36177,-0.00879,-1.03369,0.1189,1.2207,2.01416,-18.73779,1.040542882441661,18.885224994150853,walk
2026-05-24T22:06:38.668,36197,-0.02197,-0.96631,0.09741,6.40869,-25.08545,-16.72363,0.971455817368963,30.82257143061721,walk
2026-05-24T22:06:38.668,36217,-0.1062,-0.94995,0.09814,6.10352,-25.57373,-15.93018,0.9608927630594373,30.74149081186044,walk
2026-05-24T22:06:38.668,36237,-0.04565,-0.97192,0.1626,5.7373,-25.5127,-14.5874,0.986484246655769,29.943391780825365,walk
2026-05-24T22:06:38.668,36257,-0.05542,-0.99902,0.13599,5.67627,-34.66797,-12.20703,1.0097552262305949,37.190049293523394,walk
2026-05-24T22:06:38.668,36277,-0.02588,-0.97803,0.1687,5.43213,-37.53662,-10.55908,0.9928102262265432,39.370039977217445,walk
2026-05-24T22:06:38.668,36297,-0.04614,-0.97754,0.25171,4.5166,-22.88818,-11.35254,1.010480714956995,25.94510789578644,walk
2026-05-24T22:06:38.668,36317,-0.08618,-0.98779,0.25977,2.62451,-1.83105,-13.61084,1.0250056240821315,13.981979915169381,walk
2026-05-24T22:06:38.668,36337,-0.10498,-0.99048,0.18799,1.70898,-3.54004,-13.5498,1.0136131761673188,14.108493040789295,walk
2026-05-24T22:06:38.668,36357,-0.11792,-0.98706,0.22168,0.67139,0.48828,-14.4043,1.0184962407392577,14.428202950489018,walk
2026-05-24T22:06:38.668,36377,-0.12988,-0.98804,0.1897,-0.24414,9.39941,-15.68604,1.014434791398639,18.288257532342985,walk
2026-05-24T22:06:38.668,36397,-0.146,-1.00146,0.16968,-0.48828,8.54492,-16.54053,1.0261722243366365,18.62372701275714,walk
2026-05-24T22:06:38.668,36417,-0.18262,-1.01367,0.14453,-0.36621,5.49316,-18.00537,1.0400797345396169,18.82823054316576,walk
2026-05-24T22:06:38.668,36437,-0.16528,-0.96924,0.08813,-0.06104,5.06592,-18.73779,0.9871730106217451,19.410616822040975,walk
2026-05-24T22:06:38.668,36457,-0.16357,-1.00854,0.09546,0.54932,1.70898,-19.22607,1.026167962908607,19.309690125626044,walk
2026-05-24T22:06:39.120,36525,-0.19678,-0.97778,0.11548,2.0752,1.09863,-26.61133,1.0040476717765945,26.714721171777178,walk
2026-05-24T22:06:39.120,36545,-0.19385,-0.98999,0.13354,2.2583,2.62451,-28.68652,1.0175907596868203,28.894712342234868,walk
2026-05-24T22:06:39.120,36565,-0.19678,-1.00415,0.12671,2.68555,-0.24414,-31.61621,1.0310649906771154,31.731002472443254,walk
2026-05-24T22:06:39.120,36585,-0.19971,-0.99146,0.11768,3.41797,-3.84521,-34.11865,1.0181972294698116,34.50435388016272,walk
2026-05-24T22:06:39.120,36605,-0.16089,-0.96729,0.10156,3.66211,-1.0376,-36.13281,0.9858245126796148,36.332734853134845,walk
2026-05-24T22:06:39.120,36625,-0.13647,-0.98584,0.12036,4.39453,0.61035,-38.63525,1.002492441916646,38.88916254698602,walk
2026-05-24T22:06:39.120,36645,-0.11304,-0.9812,0.09448,5.43213,-4.02832,-39.97803,0.992198544647189,40.54600203522167,walk
2026-05-24T22:06:39.120,36665,-0.07642,-0.97729,0.0896,6.28662,-9.82666,-41.07666,0.9843596499755564,42.70101678573474,walk
2026-05-24T22:06:39.120,36685,0.01587,-0.96729,0.1355,6.65283,-8.48389,-42.05322,0.976863373763189,43.41324508614163,walk
2026-05-24T22:06:39.120,36705,0.04248,-0.96045,0.14673,6.89697,-3.2959,-42.66357,0.97252169425674,43.342950489506364,walk
2026-05-24T22:06:39.120,36725,0.0918,-0.9707,0.12842,7.08008,1.2207,-43.33496,0.9834517915993646,43.9264885860229,walk
2026-05-24T22:06:39.120,36745,0.13452,-0.97363,0.07861,8.42285,-3.11279,-42.11426,0.9860175147531609,43.060942384650616,walk
2026-05-24T22:06:39.120,36765,0.16382,-0.96313,0.03955,10.25391,-12.146,-39.97803,0.9777630550394099,43.022213668859486,walk
2026-05-24T22:06:39.120,36785,0.1582,-0.97192,0.14917,11.23047,-10.92529,-39.24561,0.995945488116694,42.25758301508855,walk
2026-05-24T22:06:39.120,36805,0.18652,-0.96655,0.17236,11.35254,-6.04248,-39.24561,0.9993580852227094,41.299027025755706,walk
2026-05-24T22:06:39.120,36825,0.27637,-0.96045,0.13843,11.53564,-5.92041,-37.78076,1.0089635495398235,39.94381142248822,walk
2026-05-24T22:06:39.120,36845,0.31909,-0.94653,0.16577,12.20703,-15.13672,-34.48486,1.012530079503814,39.589612816986474,walk
2026-05-24T22:06:39.120,36865,0.32568,-0.94458,0.24438,11.71875,-13.79395,-32.22656,1.028601197354932,36.96151143552709,walk
2026-05-24T22:06:39.120,36885,0.34668,-0.94409,0.27393,10.13184,-3.84521,-31.25,1.0423677831744418,33.07570591430665,walk
2026-05-24T22:06:39.120,36905,0.38745,-0.94043,0.22729,9.0332,4.27246,-29.78516,1.0422028744443186,31.416689400972853,walk
2026-05-24T22:06:39.573,36976,0.23267,-0.96118,0.24341,9.76562,-22.27783,-20.87402,1.0184550797163319,32.05298354995522,walk
2026-05-24T22:06:39.573,36996,0.19507,-0.96484,0.27051,8.66699,-18.12744,-21.85059,1.0208546373504899,29.68449224699321,walk
2026-05-24T22:06:39.573,37016,0.18506,-0.95923,0.27295,7.08008,-9.46045,-23.62061,1.0143328344286209,26.411377544175917,walk
2026-05-24T22:06:39.573,37036,0.21606,-0.96387,0.25513,5.79834,-0.73242,-25.02441,1.0202051839703619,25.69782639952453,walk
2026-05-24T22:06:39.573,37056,0.27148,-0.94458,0.25293,4.88281,5.7373,-25.81787,1.0148430182545476,26.89462504150225,walk
2026-05-24T22:06:39.573,37076,0.30176,-0.94116,0.21802,4.15039,9.70459,-25.87891,1.012113612002131,27.9485739709256,walk
2026-05-24T22:06:39.573,37096,0.31348,-0.94482,0.18945,3.96729,13.61084,-25.81787,1.0133340245447204,29.454316607020434,walk
2026-05-24T22:06:39.573,37116,0.31934,-0.9502,0.13623,5.18799,11.2915,-24.53613,1.0116405925525132,27.503361392146235,walk
2026-05-24T22:06:39.573,37136,0.30054,-0.9917,0.10205,7.26318,-1.89209,-20.99609,1.041252795482442,22.297299916550433,walk
2026-05-24T22:06:39.573,37156,0.2041,-1.08862,0.10327,7.75146,-13.85498,-13.91602,1.1123915710306331,21.111636970457784,walk
2026-05-24T22:06:39.573,37176,0.18311,-1.14624,0.19629,6.40869,-4.69971,-9.09424,1.1772532326564238,12.077407949464984,walk
2026-05-24T22:06:39.573,37196,0.17578,-1.09106,0.17603,6.22559,3.11279,-5.18799,1.1190608084014022,8.68116770211819,walk
2026-05-24T22:06:39.573,37216,0.13379,-1.16992,0.14453,3.72314,1.40381,3.96729,1.186381680320461,5.618882799970115,walk
2026-05-24T22:06:39.573,37236,0.13306,-1.15845,0.1687,1.64795,-1.15967,13.24463,1.1782067119567772,13.39704435867479,walk
2026-05-24T22:06:39.573,37256,0.13184,-1.1355,0.2041,-0.54932,-3.96729,20.1416,1.1612057722901656,20.53594879635465,walk
2026-05-24T22:06:39.573,37276,0.13086,-1.10034,0.23999,-3.72314,-0.42725,26.67236,1.13378466002147,26.934347996409716,walk
2026-05-24T22:06:39.573,37296,0.14331,-1.07129,0.25049,-7.32422,5.92041,31.92139,1.1094797250513413,33.281685544884894,walk
2026-05-24T22:06:39.573,37316,0.1582,-1.05664,0.25073,-10.98633,13.3667,36.56006,1.0974428743674998,40.447572275261464,walk
2026-05-24T22:06:39.573,37336,0.17163,-1.07397,0.23413,-14.16016,18.9209,40.71045,1.1125130447325102,47.07283003217567,walk
2026-05-24T22:06:39.573,37356,0.17041,-1.10352,0.21362,-16.6626,22.03369,44.73877,1.1368506774858342,52.58025556127509,walk
2026-05-24T22:06:40.054,37425,0.0874,-1.03516,0.09546,-19.28711,16.72363,53.16162,1.0432198220892854,58.97313162409981,walk
2026-05-24T22:06:40.054,37445,0.07422,-0.99902,0.09839,-18.43262,6.04248,55.05371,1.0065933443551076,58.37108898572049,walk
2026-05-24T22:06:40.054,37465,0.04175,-0.96216,0.11548,-17.57813,-2.86865,56.64063,0.9699642047519074,59.37491704344774,walk
2026-05-24T22:06:40.054,37485,0.04028,-0.90967,0.15723,-17.63916,-4.27246,57.00684,0.924036395495329,59.82619565660848,walk
2026-05-24T22:06:40.054,37505,0.04102,-0.87622,0.17554,-18.24951,-0.30518,57.12891,0.8945716407309143,59.97374515453074,walk
2026-05-24T22:06:40.054,37525,0.0459,-0.86084,0.18188,-19.28711,6.40869,56.88477,0.8810406630797469,60.406464700569096,walk
2026-05-24T22:06:40.054,37545,0.07275,-0.86646,0.18896,-20.56885,14.95361,56.9458,0.8898041220965432,62.365953692656696,walk
2026-05-24T22:06:40.054,37565,0.09351,-0.90259,0.17114,-21.91162,17.02881,58.28857,0.9234185008976158,64.55739193682936,walk
2026-05-24T22:06:40.054,37585,0.09521,-0.9436,0.14233,-21.85059,12.87842,60.54688,0.959011852377227,65.64470018804946,walk
